,section,task_section,task,trial_id,cue_dir,valid_cue,key_resp.keys,key_resp.rt,correct_response,median_left_eye_x,mean_left_eye_x,participant_number,session_number,session_type,no_bad_eye_indicies,median_aai,mean_aai,eyes_open_baseline,eyes_closed_baseline,posner_baseline,posner_threshold,percentage_bad_eye
0,baseline_eo-0,,baseline0,,,,,,,,,sub-00,ses-01,an-at,,-0.025364857885760494,-0.02144831272558733,,,,,
1,baseline_ec-0,,baseline0,,,,,,,,,sub-00,ses-01,an-at,,-0.11815972322573241,-0.1182357027375482,,,,,
2,baseline_eo-0,,baseline1,,,,,,,,,sub-00,ses-01,an-at,,-0.029136735970457333,-0.019690301176122964,,,,,
3,baseline_ec-0,,baseline1,,,,,,,,,sub-00,ses-01,an-at,,-0.15232058153423125,-0.15113909637138528,,,,,
4,cue_left,pos,posner0,0.0,left,True,['left'],[0.3404449999798089],True,621.0,620.4332,sub-00,ses-01,an-at,0.0,0.059458376134459326,-0.026283127076215537,-0.025364857885760494,-0.11815972322573241,-0.013183726367449577,0.08467945757592392,0.0
5,cue_left,pos,posner0,1.0,left,True,['left'],[0.3464029000606388],True,631.0,631.487,sub-00,ses-01,an-at,0.0,-0.07396259877904604,-0.051756680709516716,-0.025364857885760494,-0.11815972322573241,-0.013183726367449577,0.08467945757592392,0.0
6,cue_centre,pos,posner0,2.0,centre,True,['right'],[0.3002936001867056],True,645.0,648.067,sub-00,ses-01,an-at,0.0,0.0024052010434764126,0.01518332226766824,-0.025364857885760494,-0.11815972322573241,-0.013183726367449577,0.08467945757592392,0.0
7,cue_centre,pos,posner0,3.0,centre,True,['right'],[0.332153000170365],True,654.0,653.2738,sub-00,ses-01,an-at,0.0,-0.03629299361724117,-0.040173722326866244,-0.025364857885760494,-0.11815972322573241,-0.013183726367449577,0.08467945757592392,0.0
8,cue_centre,pos,posner0,4.0,centre,True,['right'],[0.31821119994856417],True,649.0,648.7546,sub-00,ses-01,an-at,0.0,-0.1519580819878591,-0.16897272025030707,-0.025364857885760494,-0.11815972322573241,-0.013183726367449577,0.08467945757592392,0.0
9,cue_left,pos,posner0,5.0,left,True,['left'],[0.32405810011550784],True,644.0,637.5792,sub-00,ses-01,an-at,0.0,0.015333834742746098,0.02274135966066864,-0.025364857885760494,-0.11815972322573241,-0.013183726367449577,0.08467945757592392,0.0
10,cue_left,pos,posner0,6.0,left,True,['left'],[0.3820030000060797],True,645.5,645.497,sub-00,ses-01,an-at,0.0,-0.09775376059954571,-0.09367129960227967,-0.025364857885760494,-0.11815972322573241,-0.013183726367449577,0.08467945757592392,0.0
11,cue_centre,pos,posner0,7.0,centre,True,['right'],[0.25601890007965267],True,647.0,646.9344,sub-00,ses-01,an-at,0.0,0.08058467577922415,0.03414375231388897,-0.025364857885760494,-0.11815972322573241,-0.013183726367449577,0.08467945757592392,0.0
12,cue_right,pos,posner0,8.0,right,True,['right'],[0.2840948000084609],True,647.0,646.7376,sub-00,ses-01,an-at,0.0,0.07924508858282307,0.09622428081694419,-0.025364857885760494,-0.11815972322573241,-0.013183726367449577,0.08467945757592392,0.0
13,cue_left,pos,posner0,9.0,left,False,['right'],[0.34583569993264973],True,648.5,648.6038,sub-00,ses-01,an-at,0.0,0.13210828940030156,0.08261242555712606,-0.025364857885760494,-0.11815972322573241,-0.013183726367449577,0.08467945757592392,0.0
14,cue_right,pos,posner0,10.0,right,False,['left'],[0.327965599950403],True,656.0,655.3336,sub-00,ses-01,an-at,0.0,0.021884006108309033,0.009592396144127277,-0.025364857885760494,-0.11815972322573241,-0.013183726367449577,0.08467945757592392,0.0
15,cue_left,pos,posner0,11.0,left,False,['right'],[0.2838204998988658],True,650.0,649.1754,sub-00,ses-01,an-at,0.0,0.0986079661932754,0.0922923064656194,-0.025364857885760494,-0.11815972322573241,-0.013183726367449577,0.08467945757592392,0.0
16,cue_left,pos,posner0,12.0,left,False,['right'],[0.3331264997832477],True,655.0,655.3328,sub-00,ses-01,an-at,0.0,0.03719588052127093,0.03576014660791196,-0.025364857885760494,-0.11815972322573241,-0.013183726367449577,0.08467945757592392,0.0
17,cue_left,pos,posner0,13.0,left,True,['left'],[0.28973380010575056],True,655.0,655.3992,sub-00,ses-01,an-at,0.0,0.03909566873555593,-0.001150487089090393,-0.025364857885760494,-0.11815972322573241,-0.013183726367449577,0.08467945757592392,0.0
18,cue_centre,pos,posner0,14.0,centre,True,['left'],[0.28953559999354184],True,660.0,659.44,sub-00,ses-01,an-at,0.0,-0.10535748067787526,-0.0730115996786576,-0.025364857885760494,-0.11815972322573241,-0.013183726367449577,0.08467945757592392,0.0
19,cue_right,pos,posner0,15.0,right,True,['right'],[0.30563919991254807],True,655.0,655.2814,sub-00,ses-01,an-at,0.0,-3.868159110367178e-05,-0.005033689816271233,-0.025364857885760494,-0.11815972322573241,-0.013183726367449577,0.08467945757592392,0.0
20,cue_left,pos,posner0,16.0,left,True,['left'],[0.31963899987749755],True,658.0,657.8324,sub-00,ses-01,an-at,0.0,-0.2356380567043419,-0.1534634453621846,-0.025364857885760494,-0.11815972322573241,-0.013183726367449577,0.08467945757592392,0.0
21,cue_centre,pos,posner0,17.0,centre,True,['right'],[0.33966589998453856],True,653.25,653.4544,sub-00,ses-01,an-at,0.0,0.03236321670553965,-0.010398002412624362,-0.025364857885760494,-0.11815972322573241,-0.013183726367449577,0.08467945757592392,0.0
22,cue_right,pos,posner0,18.0,right,True,['right'],[0.314797000028193],True,657.0,656.576,sub-00,ses-01,an-at,0.0,0.28527272703908724,0.2452886383892076,-0.025364857885760494,-0.11815972322573241,-0.013183726367449577,0.08467945757592392,0.0
23,cue_centre,pos,posner0,19.0,centre,True,['left'],[0.3374931998550892],True,653.0,653.664406779661,sub-00,ses-01,an-at,140.0,-0.08973184285691138,-0.056604318933863244,-0.025364857885760494,-0.11815972322573241,-0.013183726367449577,0.08467945757592392,0.056
24,cue_centre,pos,posner0,20.0,centre,True,['right'],[0.3155211000703275],True,652.0,653.354,sub-00,ses-01,an-at,0.0,-0.05901172537143974,-0.05190228071581827,-0.025364857885760494,-0.11815972322573241,-0.013183726367449577,0.08467945757592392,0.0
25,cue_centre,pos,posner0,21.0,centre,True,"['right', 'right']","[0.3174162998329848, 0.5573163998778909]",False,654.0,654.6128,sub-00,ses-01,an-at,0.0,-6.717507814478801e-05,0.006977862370779093,-0.025364857885760494,-0.11815972322573241,-0.013183726367449577,0.08467945757592392,0.0
26,cue_centre,pos,posner0,22.0,centre,True,['right'],[0.29927229997701943],True,657.0,657.0212,sub-00,ses-01,an-at,0.0,0.0701199048806663,0.08963037501014454,-0.025364857885760494,-0.11815972322573241,-0.013183726367449577,0.08467945757592392,0.0
27,cue_right,pos,posner0,23.0,right,True,['right'],[0.3092246998567134],True,659.0,658.9264,sub-00,ses-01,an-at,0.0,0.09890921376894152,0.0252230836310304,-0.025364857885760494,-0.11815972322573241,-0.013183726367449577,0.08467945757592392,0.0
28,cue_right,pos,posner0,24.0,right,True,['right'],[0.40704890014603734],True,655.0,656.1932,sub-00,ses-01,an-at,0.0,-0.13550737173903454,-0.0510055906683673,-0.025364857885760494,-0.11815972322573241,-0.013183726367449577,0.08467945757592392,0.0
29,cue_left,pos,posner0,25.0,left,True,['left'],[0.3262983001768589],True,640.0,639.5224,sub-00,ses-01,an-at,0.0,-0.05171043191161554,-0.018458339399437237,-0.025364857885760494,-0.11815972322573241,-0.013183726367449577,0.08467945757592392,0.0
30,cue_right,pos,posner0,26.0,right,True,['right'],[0.31296350015327334],True,657.0,657.4076,sub-00,ses-01,an-at,0.0,0.028814764113156404,-0.02073705901046566,-0.025364857885760494,-0.11815972322573241,-0.013183726367449577,0.08467945757592392,0.0
31,cue_centre,pos,posner0,27.0,centre,False,['left'],[0.2810052998829633],True,648.0,647.6764,sub-00,ses-01,an-at,0.0,0.09745549982630526,0.06679848694713285,-0.025364857885760494,-0.11815972322573241,-0.013183726367449577,0.08467945757592392,0.0
32,cue_left,pos,posner0,28.0,left,True,['left'],[0.3345090998336673],True,650.0,648.1330114135206,sub-00,ses-01,an-at,222.0,0.11642503461752807,0.12539866527142052,-0.025364857885760494,-0.11815972322573241,-0.013183726367449577,0.08467945757592392,0.0888
33,cue_right,pos,posner0,29.0,right,True,['right'],[0.33724080002866685],True,663.5,664.086,sub-00,ses-01,an-at,0.0,0.04766615889442622,0.024491244933197744,-0.025364857885760494,-0.11815972322573241,-0.013183726367449577,0.08467945757592392,0.0
34,cue_left,pos,posner0,30.0,left,True,['left'],[0.31486749998293817],True,656.0,654.0224,sub-00,ses-01,an-at,0.0,0.021739749463734893,0.003354692629388171,-0.025364857885760494,-0.11815972322573241,-0.013183726367449577,0.08467945757592392,0.0
35,cue_right,pos,posner0,31.0,right,True,['right'],[0.3086504000239074],True,655.5,650.461,sub-00,ses-01,an-at,0.0,0.11356585140234185,0.11967014272712631,-0.025364857885760494,-0.11815972322573241,-0.013183726367449577,0.08467945757592392,0.0
36,cue_left,pos,posner0,32.0,left,True,['left'],[0.3147433998528868],True,663.0,663.4676,sub-00,ses-01,an-at,0.0,0.11719413693697309,0.09653489322936339,-0.025364857885760494,-0.11815972322573241,-0.013183726367449577,0.08467945757592392,0.0
37,cue_right,pos,posner0,33.0,right,False,['left'],[0.32082040002569556],True,663.0,662.9506,sub-00,ses-01,an-at,0.0,-0.04468427242108641,-0.08342415799843575,-0.025364857885760494,-0.11815972322573241,-0.013183726367449577,0.08467945757592392,0.0
38,cue_right,pos,posner0,34.0,right,False,['left'],[0.34053810010664165],True,666.0,665.5792,sub-00,ses-01,an-at,0.0,-0.07541575673916975,-0.10453904130515584,-0.025364857885760494,-0.11815972322573241,-0.013183726367449577,0.08467945757592392,0.0
39,cue_right,pos,posner0,35.0,right,False,['left'],[0.3046371000818908],True,661.0,660.9586,sub-00,ses-01,an-at,0.0,-0.166913786466384,-0.10121851313652913,-0.025364857885760494,-0.11815972322573241,-0.013183726367449577,0.08467945757592392,0.0
40,cue_centre,pos,posner0,36.0,centre,True,['right'],[0.34063770016655326],True,659.0,659.9556,sub-00,ses-01,an-at,0.0,0.1245042696544315,0.10950288457571937,-0.025364857885760494,-0.11815972322573241,-0.013183726367449577,0.08467945757592392,0.0
41,cue_centre,pos,posner0,37.0,centre,True,['right'],[0.2946442000102252],True,660.0,660.7282,sub-00,ses-01,an-at,0.0,0.13837645703017065,0.15159544928701393,-0.025364857885760494,-0.11815972322573241,-0.013183726367449577,0.08467945757592392,0.0
42,cue_right,pos,posner0,38.0,right,False,['left'],[0.3526747999712825],True,659.0,657.877408056042,sub-00,ses-01,an-at,216.0,-0.0510997894866296,-0.003171733985063334,-0.025364857885760494,-0.11815972322573241,-0.013183726367449577,0.08467945757592392,0.0864
43,cue_centre,pos,posner0,39.0,centre,True,['right'],[0.31850939989089966],True,657.0,656.4432,sub-00,ses-01,an-at,0.0,0.17811299332502073,0.1129996668126344,-0.025364857885760494,-0.11815972322573241,-0.013183726367449577,0.08467945757592392,0.0
44,cue_right,pos,posner0,40.0,right,True,['right'],[0.36235349997878075],True,659.0,658.5252,sub-00,ses-01,an-at,0.0,0.036105876681131965,0.05890511013780771,-0.025364857885760494,-0.11815972322573241,-0.013183726367449577,0.08467945757592392,0.0
45,cue_centre,pos,posner0,41.0,centre,False,['left'],[0.35243839980103076],True,658.0,657.7706,sub-00,ses-01,an-at,0.0,0.12708005258260663,0.04690756681865138,-0.025364857885760494,-0.11815972322573241,-0.013183726367449577,0.08467945757592392,0.0
46,cue_left,pos,posner0,42.0,left,True,['left'],[0.3481731000356376],True,659.5,659.6204,sub-00,ses-01,an-at,0.0,-0.0017480115344397013,-0.009905491771260598,-0.025364857885760494,-0.11815972322573241,-0.013183726367449577,0.08467945757592392,0.0
47,cue_right,pos,posner0,43.0,right,False,['left'],[0.3221241000574082],True,660.0,660.099,sub-00,ses-01,an-at,0.0,0.005226468624022087,0.05345286876428628,-0.025364857885760494,-0.11815972322573241,-0.013183726367449577,0.08467945757592392,0.0
48,cue_left,pos,posner0,44.0,left,True,['left'],[0.4225886999629438],True,655.0,656.152,sub-00,ses-01,an-at,0.0,-0.1447987612226178,-0.1628570055840104,-0.025364857885760494,-0.11815972322573241,-0.013183726367449577,0.08467945757592392,0.0
49,cue_right,pos,posner0,45.0,right,True,['right'],[0.33043269999325275],True,656.0,656.5378,sub-00,ses-01,an-at,0.0,-0.12147511789139766,-0.11331684855478698,-0.025364857885760494,-0.11815972322573241,-0.013183726367449577,0.08467945757592392,0.0
50,cue_right,pos,posner0,46.0,right,True,['right'],[0.3304421999491751],True,661.0,660.1,sub-00,ses-01,an-at,0.0,0.0015587631801119738,-0.036514423447885705,-0.025364857885760494,-0.11815972322573241,-0.013183726367449577,0.08467945757592392,0.0
51,cue_left,pos,posner0,47.0,left,True,['left'],[0.3962620000820607],True,659.0,658.712,sub-00,ses-01,an-at,0.0,0.04142840096854633,0.07945547401895399,-0.025364857885760494,-0.11815972322573241,-0.013183726367449577,0.08467945757592392,0.0
52,cue_centre,pos,posner0,48.0,centre,False,['left'],[0.3701484000775963],True,662.0,663.184,sub-00,ses-01,an-at,0.0,0.04225776255408232,0.014365989698862335,-0.025364857885760494,-0.11815972322573241,-0.013183726367449577,0.08467945757592392,0.0
53,cue_left,pos,posner0,49.0,left,False,['right'],[0.3298422999214381],True,664.0,664.0492,sub-00,ses-01,an-at,0.0,-0.20839886267357755,-0.147856318735852,-0.025364857885760494,-0.11815972322573241,-0.013183726367449577,0.08467945757592392,0.0
54,cue_right,pos,posner0,50.0,right,True,['right'],[0.3481385998893529],True,651.0,650.421,sub-00,ses-01,an-at,0.0,-0.01620293258475433,-0.03999523938022692,-0.025364857885760494,-0.11815972322573241,-0.013183726367449577,0.08467945757592392,0.0
55,cue_right,pos,posner0,51.0,right,True,['right'],[0.31801049993373454],True,652.0,654.0356,sub-00,ses-01,an-at,0.0,0.007582755500299734,-0.03735551460373084,-0.025364857885760494,-0.11815972322573241,-0.013183726367449577,0.08467945757592392,0.0
56,cue_centre,pos,posner0,52.0,centre,True,['right'],[0.3178713000379503],True,663.0,663.003,sub-00,ses-01,an-at,0.0,-0.005610388273247313,0.012914085598640827,-0.025364857885760494,-0.11815972322573241,-0.013183726367449577,0.08467945757592392,0.0
57,cue_left,pos,posner0,53.0,left,True,['left'],[0.3778019000310451],True,659.0,658.6408,sub-00,ses-01,an-at,0.0,0.05746586352815446,-0.023024745983617083,-0.025364857885760494,-0.11815972322573241,-0.013183726367449577,0.08467945757592392,0.0
58,cue_centre,pos,posner0,54.0,centre,True,['left'],[0.3216331999283284],True,660.0,660.8074,sub-00,ses-01,an-at,0.0,0.02017675352104939,0.042051609694035964,-0.025364857885760494,-0.11815972322573241,-0.013183726367449577,0.08467945757592392,0.0
59,cue_centre,pos,posner0,55.0,centre,True,['left'],[0.34743470000103116],True,661.5,662.098,sub-00,ses-01,an-at,0.0,-0.029351274142124874,-0.020109891188243256,-0.025364857885760494,-0.11815972322573241,-0.013183726367449577,0.08467945757592392,0.0
60,cue_centre,pos,posner0,56.0,centre,False,['left'],[0.36162809981033206],True,661.5,661.6917562724014,sub-00,ses-01,an-at,268.0,-0.1271185530184908,-0.08172847936058557,-0.025364857885760494,-0.11815972322573241,-0.013183726367449577,0.08467945757592392,0.1072
61,cue_centre,pos,posner0,57.0,centre,False,['left'],[0.40764880017377436],True,661.5,662.7309219232466,sub-00,ses-01,an-at,233.0,-0.01832041928754067,-0.05424691271426356,-0.025364857885760494,-0.11815972322573241,-0.013183726367449577,0.08467945757592392,0.0932
62,cue_centre,pos,posner0,58.0,centre,True,['right'],[0.351445599924773],True,659.0,659.9469633943428,sub-00,ses-01,an-at,96.0,-0.05860545229222165,-0.0035987624124375517,-0.025364857885760494,-0.11815972322573241,-0.013183726367449577,0.08467945757592392,0.0384
63,cue_left,pos,posner0,59.0,left,True,['left'],[0.3115268999245018],True,660.0,659.6924,sub-00,ses-01,an-at,0.0,-0.15958244721117687,-0.17853805151545718,-0.025364857885760494,-0.11815972322573241,-0.013183726367449577,0.08467945757592392,0.0
64,cue_left,pos,posner0,60.0,left,True,['left'],[0.3034415999427438],True,655.0,653.6904,sub-00,ses-01,an-at,0.0,-0.08418799463731755,-0.06320389652361663,-0.025364857885760494,-0.11815972322573241,-0.013183726367449577,0.08467945757592392,0.0
65,cue_left,pos,posner0,61.0,left,True,['left'],[0.31737589999102056],True,662.0,663.0068,sub-00,ses-01,an-at,0.0,-0.030504003442492253,-0.01927323084651234,-0.025364857885760494,-0.11815972322573241,-0.013183726367449577,0.08467945757592392,0.0
66,cue_right,pos,posner0,62.0,right,False,['left'],[0.3110424999613315],True,661.5,662.3386,sub-00,ses-01,an-at,0.0,-0.07258575281340181,-0.08491471263789237,-0.025364857885760494,-0.11815972322573241,-0.013183726367449577,0.08467945757592392,0.0
67,cue_left,pos,posner0,63.0,left,True,['left'],[0.415405300213024],True,658.5,657.2006,sub-00,ses-01,an-at,0.0,0.05481413362386975,0.011374826667242183,-0.025364857885760494,-0.11815972322573241,-0.013183726367449577,0.08467945757592392,0.0
68,cue_centre,pos,posner0,64.0,centre,True,['right'],[0.34140309994108975],True,664.0,663.5784,sub-00,ses-01,an-at,0.0,-0.03164051259588799,0.021575733409161024,-0.025364857885760494,-0.11815972322573241,-0.013183726367449577,0.08467945757592392,0.0
69,cue_right,pos,posner0,65.0,right,True,['right'],[0.3592723999172449],True,665.0,666.4056,sub-00,ses-01,an-at,0.0,0.09463375267832085,0.04730348035711706,-0.025364857885760494,-0.11815972322573241,-0.013183726367449577,0.08467945757592392,0.0
70,cue_right,pos,posner0,66.0,right,True,['right'],[0.3809533000458032],True,666.0,666.4848,sub-00,ses-01,an-at,0.0,0.12022086243701044,0.06541045962512096,-0.025364857885760494,-0.11815972322573241,-0.013183726367449577,0.08467945757592392,0.0
71,cue_centre,pos,posner0,67.0,centre,True,['left'],[0.35517910006456077],True,663.0,662.5526,sub-00,ses-01,an-at,0.0,0.0798638709078846,0.07568560106981767,-0.025364857885760494,-0.11815972322573241,-0.013183726367449577,0.08467945757592392,0.0
72,cue_right,pos,posner0,68.0,right,False,['left'],[0.31109950016252697],True,662.0,661.9936,sub-00,ses-01,an-at,0.0,0.13528699426877702,0.10167528920493829,-0.025364857885760494,-0.11815972322573241,-0.013183726367449577,0.08467945757592392,0.0
73,cue_left,pos,posner0,69.0,left,True,['left'],[0.3249827001709491],True,661.0,662.0988,sub-00,ses-01,an-at,0.0,-0.05742811737406103,-0.13245578883090667,-0.025364857885760494,-0.11815972322573241,-0.013183726367449577,0.08467945757592392,0.0
74,cue_centre,pos,posner0,70.0,centre,True,['left'],[0.34498070017434657],True,667.0,667.0144,sub-00,ses-01,an-at,0.0,-0.021612134454879202,-0.004656244179071109,-0.025364857885760494,-0.11815972322573241,-0.013183726367449577,0.08467945757592392,0.0
75,cue_right,pos,posner0,71.0,right,True,['right'],[0.32899559987708926],True,657.0,656.6122,sub-00,ses-01,an-at,0.0,0.0389467946732035,-0.01678768123315366,-0.025364857885760494,-0.11815972322573241,-0.013183726367449577,0.08467945757592392,0.0
76,cue_right,pos,posner0,72.0,right,True,['right'],[0.36693000001832843],True,659.0,659.4904,sub-00,ses-01,an-at,0.0,0.08561729527743434,0.13208688820676506,-0.025364857885760494,-0.11815972322573241,-0.013183726367449577,0.08467945757592392,0.0
77,cue_centre,pos,posner0,73.0,centre,False,['left'],[0.373052200069651],True,664.0,663.7954,sub-00,ses-01,an-at,0.0,-0.19121218671180729,-0.1936486603446501,-0.025364857885760494,-0.11815972322573241,-0.013183726367449577,0.08467945757592392,0.0
78,cue_left,pos,posner0,74.0,left,True,['left'],[0.4048321999143809],True,665.0,663.9988,sub-00,ses-01,an-at,0.0,0.14454045371894853,0.18629456419816706,-0.025364857885760494,-0.11815972322573241,-0.013183726367449577,0.08467945757592392,0.0
79,cue_right,pos,posner0,75.0,right,True,['right'],[0.3426368997897953],True,630.0,631.1644,sub-00,ses-01,an-at,0.0,-0.0668820020116391,-0.13559975882261527,-0.025364857885760494,-0.11815972322573241,-0.013183726367449577,0.08467945757592392,0.0
80,cue_right,pos,posner0,76.0,right,True,['right'],[0.3307153999339789],True,634.0,634.3562,sub-00,ses-01,an-at,0.0,0.06623442643297295,0.04395266151801237,-0.025364857885760494,-0.11815972322573241,-0.013183726367449577,0.08467945757592392,0.0
81,cue_centre,pos,posner0,77.0,centre,False,['right'],[0.34674419998191297],True,635.0,635.0308,sub-00,ses-01,an-at,0.0,-0.2429746688949118,-0.24933015259789898,-0.025364857885760494,-0.11815972322573241,-0.013183726367449577,0.08467945757592392,0.0
82,cue_centre,pos,posner0,78.0,centre,True,['right'],[0.31871060002595186],True,644.0,642.8452,sub-00,ses-01,an-at,0.0,0.026434530064545977,-0.017227276293378595,-0.025364857885760494,-0.11815972322573241,-0.013183726367449577,0.08467945757592392,0.0
83,cue_centre,pos,posner0,79.0,centre,True,['right'],[0.3405134999193251],True,642.5,641.9344969199178,sub-00,ses-01,an-at,65.0,0.0623450281264774,0.079925438424198,-0.025364857885760494,-0.11815972322573241,-0.013183726367449577,0.08467945757592392,0.026
84,cue_left,pos,posner0,80.0,left,False,['right'],[0.34858320001512766],True,646.0,646.0782,sub-00,ses-01,an-at,0.0,0.16236259114968266,0.14594540192853314,-0.025364857885760494,-0.11815972322573241,-0.013183726367449577,0.08467945757592392,0.0
85,cue_right,pos,posner0,81.0,right,False,['left'],[0.3765875999815762],True,648.0,648.3494,sub-00,ses-01,an-at,0.0,-0.032988930546232115,-0.05088519015626486,-0.025364857885760494,-0.11815972322573241,-0.013183726367449577,0.08467945757592392,0.0
86,cue_left,pos,posner0,82.0,left,False,['right'],[0.32437060005031526],True,642.0,641.4271047227926,sub-00,ses-01,an-at,65.0,0.0928642235476681,0.0785920272299612,-0.025364857885760494,-0.11815972322573241,-0.013183726367449577,0.08467945757592392,0.026
87,cue_centre,pos,posner0,83.0,centre,True,['right'],[0.31423099990934134],True,646.0,646.1072,sub-00,ses-01,an-at,0.0,-0.019468309329964312,-0.013206295156219289,-0.025364857885760494,-0.11815972322573241,-0.013183726367449577,0.08467945757592392,0.0
88,cue_centre,pos,posner0,84.0,centre,False,['right'],[0.3024246001150459],True,646.0,645.8078,sub-00,ses-01,an-at,0.0,-0.02152172360164016,-0.05335569351309498,-0.025364857885760494,-0.11815972322573241,-0.013183726367449577,0.08467945757592392,0.0
89,cue_left,pos,posner0,85.0,left,False,['right'],[0.336167800007388],True,646.0,647.9904,sub-00,ses-01,an-at,0.0,0.010907666681907575,-0.010386804015679253,-0.025364857885760494,-0.11815972322573241,-0.013183726367449577,0.08467945757592392,0.0
90,cue_centre,pos,posner0,86.0,centre,False,['right'],[0.31230310001410544],True,646.0,645.2078,sub-00,ses-01,an-at,0.0,-0.11248674844725598,-0.10890101407958484,-0.025364857885760494,-0.11815972322573241,-0.013183726367449577,0.08467945757592392,0.0
91,cue_centre,pos,posner0,87.0,centre,False,['right'],[0.32811390003189445],True,651.5,651.5076,sub-00,ses-01,an-at,0.0,-0.13427028287486847,-0.10202300645097981,-0.025364857885760494,-0.11815972322573241,-0.013183726367449577,0.08467945757592392,0.0
92,cue_left,pos,posner0,88.0,left,True,['left'],[0.30415320000611246],True,645.0,645.0262,sub-00,ses-01,an-at,0.0,-0.09099129843467661,-0.16303653347051228,-0.025364857885760494,-0.11815972322573241,-0.013183726367449577,0.08467945757592392,0.0
93,cue_right,pos,posner0,89.0,right,True,['right'],[0.29810000001452863],True,655.0,654.0556,sub-00,ses-01,an-at,0.0,0.06007486043526823,0.037945251030231865,-0.025364857885760494,-0.11815972322573241,-0.013183726367449577,0.08467945757592392,0.0
94,cue_centre,pos,posner0,90.0,centre,False,['right'],[0.33013819996267557],True,652.0,652.5044,sub-00,ses-01,an-at,0.0,-0.05512094557843812,-0.11335365992418986,-0.025364857885760494,-0.11815972322573241,-0.013183726367449577,0.08467945757592392,0.0
95,cue_left,pos,posner0,91.0,left,True,['left'],[0.31787659996189177],True,655.0,654.4884,sub-00,ses-01,an-at,0.0,0.08320713083968014,0.12543239931776626,-0.025364857885760494,-0.11815972322573241,-0.013183726367449577,0.08467945757592392,0.0
96,cue_right,pos,posner0,92.0,right,True,['right'],[0.3079476000275463],True,649.5,649.972,sub-00,ses-01,an-at,0.0,-0.09909729492106795,-0.1432575708195694,-0.025364857885760494,-0.11815972322573241,-0.013183726367449577,0.08467945757592392,0.0
97,cue_centre,pos,posner0,93.0,centre,True,['left'],[0.31179290008731186],True,651.0,651.4054,sub-00,ses-01,an-at,0.0,0.11652641466542227,0.11943589310252273,-0.025364857885760494,-0.11815972322573241,-0.013183726367449577,0.08467945757592392,0.0
98,cue_left,pos,posner0,94.0,left,False,['right'],[0.29984230012632906],True,654.0,653.9254,sub-00,ses-01,an-at,0.0,-0.13767808134007736,-0.0892594092710436,-0.025364857885760494,-0.11815972322573241,-0.013183726367449577,0.08467945757592392,0.0
99,cue_centre,pos,posner0,95.0,centre,False,['left'],[0.3337874000426382],True,651.0,651.1892,sub-00,ses-01,an-at,0.0,-0.022122825009073012,0.0059068145382235445,-0.025364857885760494,-0.11815972322573241,-0.013183726367449577,0.08467945757592392,0.0
100,cue_centre,pos,posner0,96.0,centre,False,['left'],[0.3298561000265181],True,653.0,652.262,sub-00,ses-01,an-at,0.0,-0.05660337789890056,-0.08952146548439611,-0.025364857885760494,-0.11815972322573241,-0.013183726367449577,0.08467945757592392,0.0
101,cue_centre,pos,posner0,97.0,centre,False,['left'],[0.3616162999533117],True,649.0,650.8446,sub-00,ses-01,an-at,0.0,-0.10693766803231206,-0.08934892761161765,-0.025364857885760494,-0.11815972322573241,-0.013183726367449577,0.08467945757592392,0.0
102,cue_centre,pos,posner0,98.0,centre,True,['left'],[0.30964470002800226],True,657.0,657.3688,sub-00,ses-01,an-at,0.0,-0.25435121863504867,-0.23908295445594355,-0.025364857885760494,-0.11815972322573241,-0.013183726367449577,0.08467945757592392,0.0
103,cue_centre,pos,posner0,99.0,centre,True,['left'],[0.31383990007452667],True,658.0,658.987,sub-00,ses-01,an-at,0.0,-0.05684472863520747,-0.051150069330907155,-0.025364857885760494,-0.11815972322573241,-0.013183726367449577,0.08467945757592392,0.0
104,cue_left,pos,posner1,0.0,left,True,['left'],[0.3210328998975456],True,590.0,593.8012,sub-00,ses-01,an-at,0.0,0.054357574087515306,0.06544929018271044,-0.025364857885760494,-0.11815972322573241,-0.023598346126548382,0.07905775507872256,0.0
105,cue_right,pos,posner1,1.0,right,False,['left'],[0.2629100999329239],True,601.0,601.1562,sub-00,ses-01,an-at,0.0,-0.08477428363277305,-0.10848116882282807,-0.025364857885760494,-0.11815972322573241,-0.023598346126548382,0.07905775507872256,0.0
106,cue_right,pos,posner1,2.0,right,True,['right'],[0.26889949990436435],True,617.0,615.6346,sub-00,ses-01,an-at,0.0,-0.0861942660378607,-0.0591199869713178,-0.025364857885760494,-0.11815972322573241,-0.023598346126548382,0.07905775507872256,0.0
107,cue_left,pos,posner1,3.0,left,True,['left'],[0.27477049990557134],True,624.5,623.5152,sub-00,ses-01,an-at,0.0,-0.02842317008561222,-0.03768424468023101,-0.025364857885760494,-0.11815972322573241,-0.023598346126548382,0.07905775507872256,0.0
108,cue_left,pos,posner1,4.0,left,True,['left'],[0.30270520015619695],True,625.0,623.9174,sub-00,ses-01,an-at,0.0,-0.10565447176788313,-0.1022839755957151,-0.025364857885760494,-0.11815972322573241,-0.023598346126548382,0.07905775507872256,0.0
109,cue_centre,pos,posner1,5.0,centre,False,['right'],[0.24866639985702932],True,636.0,635.2356,sub-00,ses-01,an-at,0.0,-0.19976768724724853,-0.20542476593874895,-0.025364857885760494,-0.11815972322573241,-0.023598346126548382,0.07905775507872256,0.0
110,cue_centre,pos,posner1,6.0,centre,True,['right'],[0.2627179999835789],True,629.0,632.037,sub-00,ses-01,an-at,0.0,-0.021916143507371796,-0.06873070930104287,-0.025364857885760494,-0.11815972322573241,-0.023598346126548382,0.07905775507872256,0.0
111,cue_right,pos,posner1,7.0,right,True,['right'],[0.2806537998840213],True,635.0,634.5964,sub-00,ses-01,an-at,0.0,0.09884959176572919,0.07569973730758008,-0.025364857885760494,-0.11815972322573241,-0.023598346126548382,0.07905775507872256,0.0
112,cue_right,pos,posner1,8.0,right,True,['right'],[0.24267249996773899],True,637.5,636.3944,sub-00,ses-01,an-at,0.0,-0.03291402431755458,-0.08896071145811872,-0.025364857885760494,-0.11815972322573241,-0.023598346126548382,0.07905775507872256,0.0
113,cue_centre,pos,posner1,9.0,centre,True,['left'],[0.2804864998906851],True,641.5,641.192,sub-00,ses-01,an-at,0.0,-0.07166509470501797,-0.11417802678262443,-0.025364857885760494,-0.11815972322573241,-0.023598346126548382,0.07905775507872256,0.0
114,cue_right,pos,posner1,10.0,right,True,['right'],[0.25649209995754063],True,637.0,637.2442,sub-00,ses-01,an-at,0.0,0.04119494232165285,0.015219574476600451,-0.025364857885760494,-0.11815972322573241,-0.023598346126548382,0.07905775507872256,0.0
115,cue_right,pos,posner1,11.0,right,False,['left'],[0.28505940013565123],True,630.0,629.8428,sub-00,ses-01,an-at,0.0,0.051655737669710114,0.02752426237427681,-0.025364857885760494,-0.11815972322573241,-0.023598346126548382,0.07905775507872256,0.0
116,cue_right,pos,posner1,12.0,right,True,['right'],[0.3082385000307113],True,638.5,637.4590336134454,sub-00,ses-01,an-at,120.0,0.0614013752504035,0.11955387091140068,-0.025364857885760494,-0.11815972322573241,-0.023598346126548382,0.07905775507872256,0.048
117,cue_centre,pos,posner1,13.0,centre,False,['left'],[0.2662959999870509],True,638.5,635.5750946571309,sub-00,ses-01,an-at,123.0,0.001963376948916947,-0.03290203021638204,-0.025364857885760494,-0.11815972322573241,-0.023598346126548382,0.07905775507872256,0.0492
118,cue_right,pos,posner1,14.0,right,True,['right'],[0.3062891000881791],True,637.0,637.6684,sub-00,ses-01,an-at,0.0,0.105162055570688,0.128124694981705,-0.025364857885760494,-0.11815972322573241,-0.023598346126548382,0.07905775507872256,0.0
119,cue_centre,pos,posner1,15.0,centre,True,['right'],[0.26804509991779923],True,631.0,625.4664,sub-00,ses-01,an-at,0.0,-0.013931366389401508,-0.028533984785391847,-0.025364857885760494,-0.11815972322573241,-0.023598346126548382,0.07905775507872256,0.0
120,cue_right,pos,posner1,16.0,right,True,['right'],[0.274340600008145],True,643.0,642.3186,sub-00,ses-01,an-at,0.0,0.14253074132735322,0.09662728313945661,-0.025364857885760494,-0.11815972322573241,-0.023598346126548382,0.07905775507872256,0.0
121,cue_centre,pos,posner1,17.0,centre,True,['left'],[0.28034690022468567],True,642.0,642.825,sub-00,ses-01,an-at,0.0,0.19737813815755134,0.23481361005679877,-0.025364857885760494,-0.11815972322573241,-0.023598346126548382,0.07905775507872256,0.0
122,cue_right,pos,posner1,18.0,right,True,['right'],[0.2880269999150187],True,640.5,638.9344,sub-00,ses-01,an-at,0.0,-0.07799102932569899,-0.026565670306003136,-0.025364857885760494,-0.11815972322573241,-0.023598346126548382,0.07905775507872256,0.0
123,cue_centre,pos,posner1,19.0,centre,False,['right'],[0.28213720000348985],True,641.0,640.9368,sub-00,ses-01,an-at,0.0,-0.10841162527335671,-0.07787846467161867,-0.025364857885760494,-0.11815972322573241,-0.023598346126548382,0.07905775507872256,0.0
124,cue_centre,pos,posner1,20.0,centre,True,['left'],[0.30813780007883906],True,642.0,639.3551184433164,sub-00,ses-01,an-at,136.0,0.023801758917262494,0.018182915603811148,-0.025364857885760494,-0.11815972322573241,-0.023598346126548382,0.07905775507872256,0.0544
125,cue_left,pos,posner1,21.0,left,False,['right'],[0.2737936000339687],True,639.5,639.3266,sub-00,ses-01,an-at,0.0,0.0725728032904967,0.06968176605905647,-0.025364857885760494,-0.11815972322573241,-0.023598346126548382,0.07905775507872256,0.0
126,cue_right,pos,posner1,22.0,right,True,['right'],[0.2859895001165569],True,649.0,649.3278,sub-00,ses-01,an-at,0.0,-0.04289288795427025,-0.025347380756998217,-0.025364857885760494,-0.11815972322573241,-0.023598346126548382,0.07905775507872256,0.0
127,cue_centre,pos,posner1,23.0,centre,False,['left'],[0.31401759991422296],True,644.0,643.4456,sub-00,ses-01,an-at,0.0,0.1017548655005533,0.14725815722885355,-0.025364857885760494,-0.11815972322573241,-0.023598346126548382,0.07905775507872256,0.0
128,cue_left,pos,posner1,24.0,left,True,['left'],[0.2877831000369042],True,640.0,639.8536,sub-00,ses-01,an-at,0.0,0.006668380945313691,0.01189750154109667,-0.025364857885760494,-0.11815972322573241,-0.023598346126548382,0.07905775507872256,0.0
129,cue_centre,pos,posner1,25.0,centre,True,['left'],[0.28570630005560815],True,631.0,629.602,sub-00,ses-01,an-at,0.0,-0.06186935861426328,-0.06882067118544319,-0.025364857885760494,-0.11815972322573241,-0.023598346126548382,0.07905775507872256,0.0
130,cue_left,pos,posner1,26.0,left,True,['left'],[0.3056103999260813],True,632.0,631.0562,sub-00,ses-01,an-at,0.0,-0.008194856881541515,-0.012882250732632062,-0.025364857885760494,-0.11815972322573241,-0.023598346126548382,0.07905775507872256,0.0
131,cue_left,pos,posner1,27.0,left,False,"['left', 'right']","[0.27752240002155304, 0.3576569000724703]",False,637.0,637.557,sub-00,ses-01,an-at,0.0,0.0657618485107934,-0.006484037597251722,-0.025364857885760494,-0.11815972322573241,-0.023598346126548382,0.07905775507872256,0.0
132,cue_centre,pos,posner1,28.0,centre,False,['left'],[0.32179930014535785],True,638.5,648.7234,sub-00,ses-01,an-at,0.0,0.02491052591600337,-0.0211035597392704,-0.025364857885760494,-0.11815972322573241,-0.023598346126548382,0.07905775507872256,0.0
133,cue_centre,pos,posner1,29.0,centre,True,['right'],[0.303481699898839],True,637.5,638.1714,sub-00,ses-01,an-at,0.0,0.1251912714199716,0.09721467419790472,-0.025364857885760494,-0.11815972322573241,-0.023598346126548382,0.07905775507872256,0.0
134,cue_left,pos,posner1,30.0,left,True,['left'],[0.339442600030452],True,636.0,637.604,sub-00,ses-01,an-at,0.0,0.10966144041793154,0.06545294617059347,-0.025364857885760494,-0.11815972322573241,-0.023598346126548382,0.07905775507872256,0.0
135,cue_centre,pos,posner1,31.0,centre,True,['left'],[0.30135180009528995],True,642.0,642.5062,sub-00,ses-01,an-at,0.0,0.0866195502192213,0.04075600692780937,-0.025364857885760494,-0.11815972322573241,-0.023598346126548382,0.07905775507872256,0.0
136,cue_centre,pos,posner1,32.0,centre,True,['left'],[0.3053695000708103],True,647.0,645.574,sub-00,ses-01,an-at,0.0,-0.10877807771853396,-0.1143785576066548,-0.025364857885760494,-0.11815972322573241,-0.023598346126548382,0.07905775507872256,0.0
137,cue_left,pos,posner1,33.0,left,True,['left'],[0.28937500016763806],True,642.0,642.829,sub-00,ses-01,an-at,0.0,0.061236700016743625,0.08356787102845913,-0.025364857885760494,-0.11815972322573241,-0.023598346126548382,0.07905775507872256,0.0
138,cue_centre,pos,posner1,34.0,centre,False,['right'],[0.2873547999188304],True,652.0,650.5154,sub-00,ses-01,an-at,0.0,0.16350993420678203,0.129001451832631,-0.025364857885760494,-0.11815972322573241,-0.023598346126548382,0.07905775507872256,0.0
139,cue_left,pos,posner1,35.0,left,True,['left'],[0.33321779989637434],True,641.0,641.3630280217483,sub-00,ses-01,an-at,109.0,-0.04890260216417497,0.056592456546134144,-0.025364857885760494,-0.11815972322573241,-0.023598346126548382,0.07905775507872256,0.0436
140,cue_right,pos,posner1,36.0,right,True,['right'],[0.2770142999943346],True,646.0,646.4932,sub-00,ses-01,an-at,0.0,0.045043775863452803,0.050990067845096576,-0.025364857885760494,-0.11815972322573241,-0.023598346126548382,0.07905775507872256,0.0
141,cue_right,pos,posner1,37.0,right,True,['right'],[0.3051021001301706],True,656.0,656.5806,sub-00,ses-01,an-at,0.0,-0.26229293374701534,-0.25221043261428777,-0.025364857885760494,-0.11815972322573241,-0.023598346126548382,0.07905775507872256,0.0
142,cue_right,pos,posner1,38.0,right,True,['right'],[0.287080799927935],True,648.0,647.450146627566,sub-00,ses-01,an-at,113.0,0.12329616934510682,0.12740559058276849,-0.025364857885760494,-0.11815972322573241,-0.023598346126548382,0.07905775507872256,0.0452
143,cue_left,pos,posner1,39.0,left,True,['left'],[0.32704830006696284],True,647.0,647.7542,sub-00,ses-01,an-at,0.0,0.03367603059262271,0.03455226958031189,-0.025364857885760494,-0.11815972322573241,-0.023598346126548382,0.07905775507872256,0.0
144,cue_left,pos,posner1,40.0,left,True,['left'],[0.3429041001945734],True,654.0,650.3279207085618,sub-00,ses-01,an-at,129.0,0.016779607374011785,8.409593087094052e-05,-0.025364857885760494,-0.11815972322573241,-0.023598346126548382,0.07905775507872256,0.0516
145,cue_centre,pos,posner1,41.0,centre,True,['left'],[0.3128565999213606],True,651.0,651.716,sub-00,ses-01,an-at,0.0,0.041843852826949815,0.03205002572660264,-0.025364857885760494,-0.11815972322573241,-0.023598346126548382,0.07905775507872256,0.0
146,cue_right,pos,posner1,42.0,right,True,['right'],[0.29699139995500445],True,656.0,658.6805494018608,sub-00,ses-01,an-at,243.0,-0.12470707062166078,-0.1758559970535294,-0.025364857885760494,-0.11815972322573241,-0.023598346126548382,0.07905775507872256,0.0972
147,cue_right,pos,posner1,43.0,right,True,['right'],[0.309051499934867],True,655.0,658.0912003417343,sub-00,ses-01,an-at,159.0,-0.1180804852054247,-0.08827987226122766,-0.025364857885760494,-0.11815972322573241,-0.023598346126548382,0.07905775507872256,0.0636
148,cue_centre,pos,posner1,44.0,centre,True,['left'],[0.30281949997879565],True,645.0,646.146062052506,sub-00,ses-01,an-at,405.0,0.0822231024395881,0.08795734452773561,-0.025364857885760494,-0.11815972322573241,-0.023598346126548382,0.07905775507872256,0.162
149,cue_right,pos,posner1,45.0,right,True,['right'],[0.3209232999943197],True,635.0,635.1676,sub-00,ses-01,an-at,0.0,0.077459711573336,0.08799973211275258,-0.025364857885760494,-0.11815972322573241,-0.023598346126548382,0.07905775507872256,0.0
150,cue_left,pos,posner1,46.0,left,True,['left'],[0.2961740999016911],True,649.0,649.3446,sub-00,ses-01,an-at,0.0,0.1618201662803329,0.20810517698342418,-0.025364857885760494,-0.11815972322573241,-0.023598346126548382,0.07905775507872256,0.0
151,cue_right,pos,posner1,47.0,right,False,['left'],[0.2923773000948131],True,644.0,643.4788,sub-00,ses-01,an-at,0.0,0.04839515188521337,0.024209671124505682,-0.025364857885760494,-0.11815972322573241,-0.023598346126548382,0.07905775507872256,0.0
152,cue_centre,pos,posner1,48.0,centre,True,['right'],[0.30472920020110905],True,652.0,653.735717400785,sub-00,ses-01,an-at,207.0,-0.057307775070351966,-0.058070723779433765,-0.025364857885760494,-0.11815972322573241,-0.023598346126548382,0.07905775507872256,0.0828
153,cue_centre,pos,posner1,49.0,centre,True,['right'],[0.2945771999657154],True,647.5,648.0794,sub-00,ses-01,an-at,0.0,0.08235580290660707,0.10489071463438872,-0.025364857885760494,-0.11815972322573241,-0.023598346126548382,0.07905775507872256,0.0
154,cue_right,pos,posner1,50.0,right,True,['right'],[0.2886236999183893],True,622.0,623.0258,sub-00,ses-01,an-at,0.0,-0.06481880787732985,-0.033554979102760604,-0.025364857885760494,-0.11815972322573241,-0.023598346126548382,0.07905775507872256,0.0
155,cue_right,pos,posner1,51.0,right,True,['right'],[0.33256649994291365],True,605.0,606.1582,sub-00,ses-01,an-at,0.0,0.05121570506971429,0.02404631716388361,-0.025364857885760494,-0.11815972322573241,-0.023598346126548382,0.07905775507872256,0.0
156,cue_centre,pos,posner1,52.0,centre,True,['right'],[0.31256550014950335],True,621.0,621.049,sub-00,ses-01,an-at,0.0,-0.07760737779413604,-0.0613252186312348,-0.025364857885760494,-0.11815972322573241,-0.023598346126548382,0.07905775507872256,0.0
157,cue_centre,pos,posner1,53.0,centre,False,['right'],[0.2803643001243472],True,631.0,630.3552,sub-00,ses-01,an-at,0.0,-0.001897960291121382,0.001040113779482158,-0.025364857885760494,-0.11815972322573241,-0.023598346126548382,0.07905775507872256,0.0
158,cue_left,pos,posner1,54.0,left,False,['right'],[0.31620989996008575],True,619.5,618.1484130531962,sub-00,ses-01,an-at,263.0,0.04506589886113079,0.023355582733512983,-0.025364857885760494,-0.11815972322573241,-0.023598346126548382,0.07905775507872256,0.1052
159,cue_centre,pos,posner1,55.0,centre,True,['left'],[0.27261679992079735],True,637.0,638.6121495327103,sub-00,ses-01,an-at,146.0,0.012599372366770754,0.09456377379013488,-0.025364857885760494,-0.11815972322573241,-0.023598346126548382,0.07905775507872256,0.0584
160,cue_centre,pos,posner1,56.0,centre,True,['left'],[0.28817369998432696],True,638.0,637.5422,sub-00,ses-01,an-at,0.0,0.0002818512943148546,0.03740813980327767,-0.025364857885760494,-0.11815972322573241,-0.023598346126548382,0.07905775507872256,0.0
161,cue_centre,pos,posner1,57.0,centre,True,['left'],[0.2781834998168051],True,647.0,647.8952,sub-00,ses-01,an-at,0.0,-0.029495856709455252,-0.05124124800028083,-0.025364857885760494,-0.11815972322573241,-0.023598346126548382,0.07905775507872256,0.0
162,cue_centre,pos,posner1,58.0,centre,True,['right'],[0.31399130006320775],True,649.0,655.9684210526316,sub-00,ses-01,an-at,125.0,-0.10088151241364082,-0.02198477223279633,-0.025364857885760494,-0.11815972322573241,-0.023598346126548382,0.07905775507872256,0.05
163,cue_right,pos,posner1,59.0,right,True,['right'],[0.33017149986699224],True,645.0,646.105,sub-00,ses-01,an-at,0.0,-0.13918031738008424,-0.14643118566992225,-0.025364857885760494,-0.11815972322573241,-0.023598346126548382,0.07905775507872256,0.0
164,cue_right,pos,posner1,60.0,right,True,['right'],[0.30022550001740456],True,653.0,651.287,sub-00,ses-01,an-at,0.0,-0.05612565116479523,-0.04506798052240329,-0.025364857885760494,-0.11815972322573241,-0.023598346126548382,0.07905775507872256,0.0
165,cue_right,pos,posner1,61.0,right,False,['left'],[0.28008160018362105],True,649.0,654.8800804828974,sub-00,ses-01,an-at,14.0,-0.10493186337007392,-0.09870754120897902,-0.025364857885760494,-0.11815972322573241,-0.023598346126548382,0.07905775507872256,0.0056
166,cue_right,pos,posner1,62.0,right,False,['left'],[0.295913300011307],True,650.0,653.4867813680235,sub-00,ses-01,an-at,117.0,0.05601498653611028,0.010854517915262632,-0.025364857885760494,-0.11815972322573241,-0.023598346126548382,0.07905775507872256,0.0468
167,cue_right,pos,posner1,63.0,right,False,['left'],[0.28999159997329116],True,662.0,661.6703672075149,sub-00,ses-01,an-at,158.0,-0.1722176249485114,-0.12971221609885866,-0.025364857885760494,-0.11815972322573241,-0.023598346126548382,0.07905775507872256,0.0632
168,cue_left,pos,posner1,64.0,left,False,['right'],[0.28387359995394945],True,647.0,647.999,sub-00,ses-01,an-at,0.0,0.038042576890096484,0.028573431897401008,-0.025364857885760494,-0.11815972322573241,-0.023598346126548382,0.07905775507872256,0.0
169,cue_left,pos,posner1,65.0,left,False,['right'],[0.322003599954769],True,651.0,651.0286,sub-00,ses-01,an-at,0.0,-0.11174278606804516,-0.07759062381626855,-0.025364857885760494,-0.11815972322573241,-0.023598346126548382,0.07905775507872256,0.0
170,cue_right,pos,posner1,66.0,right,True,['right'],[0.27779789990745485],True,654.0,652.2064,sub-00,ses-01,an-at,0.0,0.21487968404566285,0.1457972207071425,-0.025364857885760494,-0.11815972322573241,-0.023598346126548382,0.07905775507872256,0.0
171,cue_centre,pos,posner1,67.0,centre,True,['left'],[0.2977299001067877],True,658.0,658.0774,sub-00,ses-01,an-at,0.0,0.05830898454629077,0.12057983390309378,-0.025364857885760494,-0.11815972322573241,-0.023598346126548382,0.07905775507872256,0.0
172,cue_centre,pos,posner1,68.0,centre,True,['right'],[0.2898410998750478],True,655.0,651.0063884156729,sub-00,ses-01,an-at,152.0,-0.164858389007881,-0.1855590908456737,-0.025364857885760494,-0.11815972322573241,-0.023598346126548382,0.07905775507872256,0.0608
173,cue_left,pos,posner1,69.0,left,True,['left'],[0.2597624999471009],True,642.0,641.4043250327654,sub-00,ses-01,an-at,211.0,-0.11893227874457496,-0.08734839890502327,-0.025364857885760494,-0.11815972322573241,-0.023598346126548382,0.07905775507872256,0.0844
174,cue_left,pos,posner1,70.0,left,True,['left'],[0.2915709998924285],True,635.0,635.4322,sub-00,ses-01,an-at,0.0,-0.2797142484656282,-0.26432929485701245,-0.025364857885760494,-0.11815972322573241,-0.023598346126548382,0.07905775507872256,0.0
175,cue_centre,pos,posner1,71.0,centre,True,['right'],[0.2795541000086814],True,626.0,626.4248,sub-00,ses-01,an-at,0.0,-0.027005882560033993,-0.03907762862179006,-0.025364857885760494,-0.11815972322573241,-0.023598346126548382,0.07905775507872256,0.0
176,cue_centre,pos,posner1,72.0,centre,True,['left'],[0.30941920005716383],True,632.0,636.6243990384615,sub-00,ses-01,an-at,4.0,-0.0192886093774576,-0.004158198273524785,-0.025364857885760494,-0.11815972322573241,-0.023598346126548382,0.07905775507872256,0.0016
177,cue_centre,pos,posner1,73.0,centre,False,['right'],[0.3794432000722736],True,636.0,635.754,sub-00,ses-01,an-at,0.0,-0.012111329440343264,-0.03554507991241275,-0.025364857885760494,-0.11815972322573241,-0.023598346126548382,0.07905775507872256,0.0
178,cue_right,pos,posner1,74.0,right,False,['left'],[0.26734280004166067],True,643.0,643.7473925740509,sub-00,ses-01,an-at,103.0,0.057218587100040026,0.0785947681768825,-0.025364857885760494,-0.11815972322573241,-0.023598346126548382,0.07905775507872256,0.0412
179,cue_centre,pos,posner1,75.0,centre,False,['right'],[0.3212774998974055],True,635.0,634.384,sub-00,ses-01,an-at,0.0,-0.17258684932533838,-0.14724007852712706,-0.025364857885760494,-0.11815972322573241,-0.023598346126548382,0.07905775507872256,0.0
180,cue_right,pos,posner1,76.0,right,True,['right'],[0.30532829998992383],True,635.5,635.7954,sub-00,ses-01,an-at,0.0,-0.13726834114847344,-0.07078869884470557,-0.025364857885760494,-0.11815972322573241,-0.023598346126548382,0.07905775507872256,0.0
181,cue_centre,pos,posner1,77.0,centre,True,['left'],[0.3154062998946756],True,634.0,630.3628,sub-00,ses-01,an-at,0.0,0.045165534259931986,0.03839347807565225,-0.025364857885760494,-0.11815972322573241,-0.023598346126548382,0.07905775507872256,0.0
182,cue_right,pos,posner1,78.0,right,True,['right'],[0.29507149988785386],True,638.0,637.7424307036247,sub-00,ses-01,an-at,155.0,-0.05089058556066513,-0.06085420850169369,-0.025364857885760494,-0.11815972322573241,-0.023598346126548382,0.07905775507872256,0.062
183,cue_left,pos,posner1,79.0,left,False,['right'],[0.32524640019983053],True,642.5,642.0202,sub-00,ses-01,an-at,0.0,-0.025072446709359934,-0.03453525270994577,-0.025364857885760494,-0.11815972322573241,-0.023598346126548382,0.07905775507872256,0.0
184,cue_centre,pos,posner1,80.0,centre,True,['right'],[0.29507160000503063],True,645.0,655.4122947537045,sub-00,ses-01,an-at,2.0,-0.010890525812991332,0.02584588459775374,-0.025364857885760494,-0.11815972322573241,-0.023598346126548382,0.07905775507872256,0.0008
185,cue_right,pos,posner1,81.0,right,True,['right'],[0.2891043000854552],True,634.0,634.613,sub-00,ses-01,an-at,0.0,-0.050616687211858635,-0.036901560511295964,-0.025364857885760494,-0.11815972322573241,-0.023598346126548382,0.07905775507872256,0.0
186,cue_right,pos,posner1,82.0,right,True,['right'],[0.2550627999007702],True,613.0,613.1708,sub-00,ses-01,an-at,0.0,-0.21563886327753928,-0.2063492579897149,-0.025364857885760494,-0.11815972322573241,-0.023598346126548382,0.07905775507872256,0.0
187,cue_centre,pos,posner1,83.0,centre,False,['left'],[0.32888939999975264],True,619.0,619.3084,sub-00,ses-01,an-at,0.0,-0.01891800507674901,0.04499802792954521,-0.025364857885760494,-0.11815972322573241,-0.023598346126548382,0.07905775507872256,0.0
188,cue_centre,pos,posner1,84.0,centre,True,['right'],[0.263562599895522],True,622.5,622.3304,sub-00,ses-01,an-at,0.0,0.23329117210417943,0.21976568429667204,-0.025364857885760494,-0.11815972322573241,-0.023598346126548382,0.07905775507872256,0.0
189,cue_centre,pos,posner1,85.0,centre,True,['right'],[0.2930159999523312],True,631.0,629.7004,sub-00,ses-01,an-at,0.0,0.03570706380017504,0.04450554949062357,-0.025364857885760494,-0.11815972322573241,-0.023598346126548382,0.07905775507872256,0.0
190,cue_centre,pos,posner1,86.0,centre,False,['right'],[0.2868284999858588],True,640.0,639.9124,sub-00,ses-01,an-at,0.0,0.05658811649801601,0.09860031508520575,-0.025364857885760494,-0.11815972322573241,-0.023598346126548382,0.07905775507872256,0.0
191,cue_left,pos,posner1,87.0,left,True,['left'],[0.31696099997498095],True,639.0,638.9606,sub-00,ses-01,an-at,0.0,-0.06707730618814206,-0.10259865208951355,-0.025364857885760494,-0.11815972322573241,-0.023598346126548382,0.07905775507872256,0.0
192,cue_right,pos,posner1,88.0,right,False,['left'],[0.2788279999513179],True,638.0,637.618,sub-00,ses-01,an-at,0.0,-0.11826793668884836,-0.10758938340806926,-0.025364857885760494,-0.11815972322573241,-0.023598346126548382,0.07905775507872256,0.0
193,cue_centre,pos,posner1,89.0,centre,False,['left'],[0.28863730002194643],True,638.0,638.0948,sub-00,ses-01,an-at,0.0,0.09128286677644434,0.08842319684940761,-0.025364857885760494,-0.11815972322573241,-0.023598346126548382,0.07905775507872256,0.0
194,cue_centre,pos,posner1,90.0,centre,True,['right'],[0.29260609997436404],True,644.0,644.6858,sub-00,ses-01,an-at,0.0,-0.0012551397380227225,-0.04335007751119559,-0.025364857885760494,-0.11815972322573241,-0.023598346126548382,0.07905775507872256,0.0
195,cue_right,pos,posner1,91.0,right,True,['right'],[0.3187502999790013],True,642.0,640.9354,sub-00,ses-01,an-at,0.0,-0.12966702915352785,-0.10765735364118043,-0.025364857885760494,-0.11815972322573241,-0.023598346126548382,0.07905775507872256,0.0
196,cue_left,pos,posner1,92.0,left,False,['right'],[0.30265849991701543],True,644.0,643.7738,sub-00,ses-01,an-at,0.0,0.08787814875075803,0.09568504640651626,-0.025364857885760494,-0.11815972322573241,-0.023598346126548382,0.07905775507872256,0.0
197,cue_centre,pos,posner1,93.0,centre,True,['right'],[0.30837660003453493],True,642.0,642.7512,sub-00,ses-01,an-at,0.0,0.062323274006037585,-0.003377801187587909,-0.025364857885760494,-0.11815972322573241,-0.023598346126548382,0.07905775507872256,0.0
198,cue_right,pos,posner1,94.0,right,False,['left'],[0.29632389987818897],True,647.0,651.8055433347998,sub-00,ses-01,an-at,227.0,-0.021133725447127404,0.0316151907588608,-0.025364857885760494,-0.11815972322573241,-0.023598346126548382,0.07905775507872256,0.0908
199,cue_centre,pos,posner1,95.0,centre,False,['right'],[0.27768140006810427],True,645.0,645.8684,sub-00,ses-01,an-at,0.0,0.019186792303006385,-0.04347204053707558,-0.025364857885760494,-0.11815972322573241,-0.023598346126548382,0.07905775507872256,0.0
200,cue_right,pos,posner1,96.0,right,True,['right'],[0.31021409993991256],True,642.0,645.3434032059187,sub-00,ses-01,an-at,67.0,-0.10331323652535986,-0.0898667791470561,-0.025364857885760494,-0.11815972322573241,-0.023598346126548382,0.07905775507872256,0.0268
201,cue_left,pos,posner1,97.0,left,True,['left'],[0.3023596000857651],True,639.0,643.4048,sub-00,ses-01,an-at,0.0,-0.09786778113028007,-0.1185199122826116,-0.025364857885760494,-0.11815972322573241,-0.023598346126548382,0.07905775507872256,0.0
202,cue_centre,pos,posner1,98.0,centre,False,['left'],[0.3162116000894457],True,639.0,631.2292,sub-00,ses-01,an-at,0.0,0.037006571432944696,0.008358039232763025,-0.025364857885760494,-0.11815972322573241,-0.023598346126548382,0.07905775507872256,0.0
203,cue_centre,pos,posner1,99.0,centre,True,['left'],[0.30626159999519587],True,650.5,650.2802,sub-00,ses-01,an-at,0.0,0.052944888511895064,0.06116766972893015,-0.025364857885760494,-0.11815972322573241,-0.023598346126548382,0.07905775507872256,0.0
204,nfb-0,nfb,neurofeedback0,0.0,,,,,,628.0,627.5460460369243,sub-00,ses-01,an-at,258.0,-0.009669159109923478,-0.005629468538572565,-0.025364857885760494,-0.11815972322573241,-0.023598346126548382,0.07905775507872256,0.002345539837812284
205,nfb-1,nfb,neurofeedback0,1.0,,,,,,629.0,628.2717719098231,sub-00,ses-01,an-at,1232.0,0.03781998341896874,0.03978456271091693,-0.025364857885760494,-0.11815972322573241,-0.023598346126548382,0.07905775507872256,0.011200407287537729
206,nfb-2,nfb,neurofeedback0,2.0,,,,,,635.0,634.9791132869692,sub-00,ses-01,an-at,716.0,0.05749924361997613,0.06019749602118076,-0.025364857885760494,-0.11815972322573241,-0.023598346126548382,0.07905775507872256,0.00650932761191316
207,nfb-0,nfb,neurofeedback1,0.0,,,,,,627.0,626.1147564914329,sub-00,ses-01,an-at,390.0,0.03343951769109344,0.033486401201150526,-0.025364857885760494,-0.11815972322573241,-0.023598346126548382,0.07905775507872256,0.003545583475762755
208,nfb-1,nfb,neurofeedback1,1.0,,,,,,636.5,635.4439046057753,sub-00,ses-01,an-at,805.0,0.015562391857843787,0.028261478971514768,-0.025364857885760494,-0.11815972322573241,-0.023598346126548382,0.07905775507872256,0.007318447943561584
209,nfb-2,nfb,neurofeedback1,2.0,,,,,,640.0,637.372029225255,sub-00,ses-01,an-at,1185.0,0.06417065760974303,0.05115112195526444,-0.025364857885760494,-0.11815972322573241,-0.023598346126548382,0.07905775507872256,0.01077311902250991
210,nfb-0,nfb,neurofeedback2,0.0,,,,,,633.0,632.6641679570089,sub-00,ses-01,an-at,206.0,0.01337366403716095,0.011725748287365334,-0.025364857885760494,-0.11815972322573241,-0.023598346126548382,0.07905775507872256,0.0018727953743772501
211,nfb-1,nfb,neurofeedback2,1.0,,,,,,641.0,640.5247613746282,sub-00,ses-01,an-at,410.0,0.06045783498728717,0.05347726547269311,-0.025364857885760494,-0.11815972322573241,-0.023598346126548382,0.07905775507872256,0.0037274082693916142
212,nfb-2,nfb,neurofeedback2,2.0,,,,,,646.5,645.7942446506831,sub-00,ses-01,an-at,1384.0,0.03847410075647212,0.03186564611393718,-0.025364857885760494,-0.11815972322573241,-0.023598346126548382,0.07905775507872256,0.012582275719117058
213,nfb-0,nfb,neurofeedback3,0.0,,,,,,663.0,662.538430869346,sub-00,ses-01,an-at,887.0,0.04297413702437568,0.04241209770492188,-0.025364857885760494,-0.11815972322573241,-0.023598346126548382,0.07905775507872256,0.008063929597439908
214,nfb-1,nfb,neurofeedback3,1.0,,,,,,668.0,667.2212138738937,sub-00,ses-01,an-at,1072.0,0.01666373318968558,0.016077948497780204,-0.025364857885760494,-0.11815972322573241,-0.023598346126548382,0.07905775507872256,0.009745808938506855
215,nfb-2,nfb,neurofeedback3,2.0,,,,,,669.5,664.9796046596955,sub-00,ses-01,an-at,974.0,0.0025900083037306504,0.011055410878070288,-0.025364857885760494,-0.11815972322573241,-0.023598346126548382,0.07905775507872256,0.008854867449725445
0,baseline_eo-0,,baseline0,,,,,,,,,sub-00,ses-02,an-at,,0.0006678334018404148,-0.0030643289834980246,,,,,
1,baseline_ec-0,,baseline0,,,,,,,,,sub-00,ses-02,an-at,,-0.11231284273548534,-0.10823721782651323,,,,,
2,baseline_eo-0,,baseline1,,,,,,,,,sub-00,ses-02,an-at,,-0.04903334106583918,-0.04397414314696626,,,,,
3,baseline_ec-0,,baseline1,,,,,,,,,sub-00,ses-02,an-at,,-0.15767695628105477,-0.1432997519507549,,,,,
4,cue_centre,pos,posner0,0.0,centre,False,['left'],[0.2691597999073565],True,595.0,597.9852,sub-00,ses-02,an-at,0.0,-0.006873503582779387,-0.004502276904739196,0.0006678334018404148,-0.11231284273548534,-0.011219418885831133,0.08728958542697088,0.0
5,cue_left,pos,posner0,1.0,left,True,['left'],[0.2752253001090139],True,620.0,618.1182,sub-00,ses-02,an-at,0.0,-0.11101326961620031,-0.07027360019059481,0.0006678334018404148,-0.11231284273548534,-0.011219418885831133,0.08728958542697088,0.0
6,cue_centre,pos,posner0,2.0,centre,False,None,,False,634.0,632.510502283105,sub-00,ses-02,an-at,310.0,0.18286385134139885,0.1499075786965507,0.0006678334018404148,-0.11231284273548534,-0.011219418885831133,0.08728958542697088,0.124
7,cue_right,pos,posner0,3.0,right,False,['left'],[0.31743440008722246],True,631.0,631.8444,sub-00,ses-02,an-at,0.0,0.03910356320657696,0.027875841661090327,0.0006678334018404148,-0.11231284273548534,-0.011219418885831133,0.08728958542697088,0.0
8,cue_centre,pos,posner0,4.0,centre,True,['left'],[0.3250969999935478],True,619.0,618.9327840416305,sub-00,ses-02,an-at,194.0,0.037263661046100426,0.04654901881943428,0.0006678334018404148,-0.11231284273548534,-0.011219418885831133,0.08728958542697088,0.0776
9,cue_right,pos,posner0,5.0,right,True,['right'],[0.2772003000136465],True,620.0,621.8002252252252,sub-00,ses-02,an-at,280.0,0.07728024060887809,-0.014023214867273558,0.0006678334018404148,-0.11231284273548534,-0.011219418885831133,0.08728958542697088,0.112
10,cue_right,pos,posner0,6.0,right,False,['left'],[0.2630507000721991],True,630.0,629.523,sub-00,ses-02,an-at,0.0,0.14005212070687684,0.10358980879188519,0.0006678334018404148,-0.11231284273548534,-0.011219418885831133,0.08728958542697088,0.0
11,cue_right,pos,posner0,7.0,right,False,['left'],[0.3010478999931365],True,626.0,630.6592,sub-00,ses-02,an-at,0.0,-0.00914524048821126,0.03476125314558124,0.0006678334018404148,-0.11231284273548534,-0.011219418885831133,0.08728958542697088,0.0
12,cue_right,pos,posner0,8.0,right,False,['left'],[0.3070702999830246],True,630.0,629.1158407454468,sub-00,ses-02,an-at,138.0,-0.062388142653072826,-0.09093399284295041,0.0006678334018404148,-0.11231284273548534,-0.011219418885831133,0.08728958542697088,0.0552
13,cue_left,pos,posner0,9.0,left,True,['left'],[0.3390530999749899],True,639.0,640.5256,sub-00,ses-02,an-at,0.0,-0.035941826288245084,-0.08652419561164858,0.0006678334018404148,-0.11231284273548534,-0.011219418885831133,0.08728958542697088,0.0
14,cue_centre,pos,posner0,10.0,centre,True,['left'],[0.29469929984770715],True,644.0,643.98,sub-00,ses-02,an-at,0.0,0.02360131043282545,0.009335585551986969,0.0006678334018404148,-0.11231284273548534,-0.011219418885831133,0.08728958542697088,0.0
15,cue_centre,pos,posner0,11.0,centre,True,['right'],[0.30879579996690154],True,638.0,638.119,sub-00,ses-02,an-at,0.0,-0.02898560003504272,0.048635472959329344,0.0006678334018404148,-0.11231284273548534,-0.011219418885831133,0.08728958542697088,0.0
16,cue_centre,pos,posner0,12.0,centre,True,['right'],[0.30271499999798834],True,645.0,644.1488,sub-00,ses-02,an-at,0.0,-0.10483022891832267,-0.0568193624822301,0.0006678334018404148,-0.11231284273548534,-0.011219418885831133,0.08728958542697088,0.0
17,cue_centre,pos,posner0,13.0,centre,True,['left'],[0.3547538002021611],True,635.0,638.8472,sub-00,ses-02,an-at,0.0,0.10956593405536771,0.1760307721531201,0.0006678334018404148,-0.11231284273548534,-0.011219418885831133,0.08728958542697088,0.0
18,cue_right,pos,posner0,14.0,right,False,['left'],[0.2827257998287678],True,645.0,646.2408,sub-00,ses-02,an-at,0.0,0.04938477145145576,0.06789313226094727,0.0006678334018404148,-0.11231284273548534,-0.011219418885831133,0.08728958542697088,0.0
19,cue_right,pos,posner0,15.0,right,False,['left'],[0.31262019998393953],True,654.0,655.7166,sub-00,ses-02,an-at,0.0,-0.10930180217240636,-0.1333530114337279,0.0006678334018404148,-0.11231284273548534,-0.011219418885831133,0.08728958542697088,0.0
20,cue_right,pos,posner0,16.0,right,True,['right'],[0.2725099998060614],True,651.0,646.1914,sub-00,ses-02,an-at,0.0,-0.08674356684864573,-0.0683015084039354,0.0006678334018404148,-0.11231284273548534,-0.011219418885831133,0.08728958542697088,0.0
21,cue_centre,pos,posner0,17.0,centre,False,['left'],[0.28872989979572594],True,647.0,645.9536,sub-00,ses-02,an-at,0.0,-0.004585052044297317,-0.026842485041380978,0.0006678334018404148,-0.11231284273548534,-0.011219418885831133,0.08728958542697088,0.0
22,cue_right,pos,posner0,18.0,right,False,['left'],[0.3604812000412494],True,645.0,645.5354,sub-00,ses-02,an-at,0.0,-0.01934206746483075,-0.1048823577650598,0.0006678334018404148,-0.11231284273548534,-0.011219418885831133,0.08728958542697088,0.0
23,cue_left,pos,posner0,19.0,left,False,['right'],[0.3103910000063479],True,653.0,652.8898,sub-00,ses-02,an-at,0.0,0.05352914956612147,0.07635749072983086,0.0006678334018404148,-0.11231284273548534,-0.011219418885831133,0.08728958542697088,0.0
24,cue_centre,pos,posner0,20.0,centre,True,['left'],[0.34236050001345575],True,647.5,647.6618,sub-00,ses-02,an-at,0.0,0.010013391280632028,0.003597550270869391,0.0006678334018404148,-0.11231284273548534,-0.011219418885831133,0.08728958542697088,0.0
25,cue_centre,pos,posner0,21.0,centre,True,['left'],[0.2863521999679506],True,652.0,653.0132,sub-00,ses-02,an-at,0.0,-0.07993068421079821,-0.03307857193225732,0.0006678334018404148,-0.11231284273548534,-0.011219418885831133,0.08728958542697088,0.0
26,cue_right,pos,posner0,22.0,right,True,['right'],[0.26625139988027513],True,650.5,658.6292,sub-00,ses-02,an-at,0.0,-0.24160352255245898,-0.20165647042889348,0.0006678334018404148,-0.11231284273548534,-0.011219418885831133,0.08728958542697088,0.0
27,cue_centre,pos,posner0,23.0,centre,True,['right'],[0.3102808999828994],True,645.0,644.5042,sub-00,ses-02,an-at,0.0,0.055017194493099025,0.05028874270944523,0.0006678334018404148,-0.11231284273548534,-0.011219418885831133,0.08728958542697088,0.0
28,cue_right,pos,posner0,24.0,right,False,['left'],[0.3061283999122679],True,643.0,643.6746,sub-00,ses-02,an-at,0.0,0.06676946925188113,0.12703688798794954,0.0006678334018404148,-0.11231284273548534,-0.011219418885831133,0.08728958542697088,0.0
29,cue_centre,pos,posner0,25.0,centre,True,['left'],[0.32206299994140863],True,638.0,638.076,sub-00,ses-02,an-at,0.0,-0.05779196068962345,-0.10568055746974778,0.0006678334018404148,-0.11231284273548534,-0.011219418885831133,0.08728958542697088,0.0
30,cue_centre,pos,posner0,26.0,centre,False,['left'],[0.303967900108546],True,641.0,641.5732,sub-00,ses-02,an-at,0.0,-0.18835794049629537,-0.178202183184753,0.0006678334018404148,-0.11231284273548534,-0.011219418885831133,0.08728958542697088,0.0
31,cue_centre,pos,posner0,27.0,centre,True,['right'],[0.27006829995661974],True,642.5,640.57805907173,sub-00,ses-02,an-at,130.0,-0.24230869888260054,-0.27036892555426306,0.0006678334018404148,-0.11231284273548534,-0.011219418885831133,0.08728958542697088,0.052
32,cue_right,pos,posner0,28.0,right,True,['right'],[0.31794090010225773],True,640.0,639.4774,sub-00,ses-02,an-at,0.0,-0.11611290597374445,-0.07242350773176666,0.0006678334018404148,-0.11231284273548534,-0.011219418885831133,0.08728958542697088,0.0
33,cue_centre,pos,posner0,29.0,centre,False,['right'],[0.28172389999963343],True,645.0,644.9224,sub-00,ses-02,an-at,0.0,0.006370751321335464,-0.04834803491350898,0.0006678334018404148,-0.11231284273548534,-0.011219418885831133,0.08728958542697088,0.0
34,cue_centre,pos,posner0,30.0,centre,False,['left'],[0.3377996999770403],True,638.0,634.1676,sub-00,ses-02,an-at,0.0,-0.1620538595785099,-0.17024338516683343,0.0006678334018404148,-0.11231284273548534,-0.011219418885831133,0.08728958542697088,0.0
35,cue_right,pos,posner0,31.0,right,False,['left'],[0.28174180001951754],True,646.0,646.4268,sub-00,ses-02,an-at,0.0,-0.018261521803455943,0.011903344147216626,0.0006678334018404148,-0.11231284273548534,-0.011219418885831133,0.08728958542697088,0.0
36,cue_left,pos,posner0,32.0,left,True,['left'],[0.3197658001445234],True,650.5,650.7643365424864,sub-00,ses-02,an-at,111.0,0.04413294716700061,0.031104156143960573,0.0006678334018404148,-0.11231284273548534,-0.011219418885831133,0.08728958542697088,0.0444
37,cue_right,pos,posner0,33.0,right,True,['right'],[0.2919906999450177],True,646.5,646.7194,sub-00,ses-02,an-at,0.0,-0.12526217861758063,-0.1356620258173778,0.0006678334018404148,-0.11231284273548534,-0.011219418885831133,0.08728958542697088,0.0
38,cue_right,pos,posner0,34.0,right,True,['right'],[0.3197323000058532],True,638.0,644.4584,sub-00,ses-02,an-at,0.0,0.10554787426531462,0.019332570755591097,0.0006678334018404148,-0.11231284273548534,-0.011219418885831133,0.08728958542697088,0.0
39,cue_centre,pos,posner0,35.0,centre,True,['right'],[0.28752200002782047],True,638.0,636.0814,sub-00,ses-02,an-at,0.0,0.18443839219455166,0.2276071856582851,0.0006678334018404148,-0.11231284273548534,-0.011219418885831133,0.08728958542697088,0.0
40,cue_left,pos,posner0,36.0,left,False,['right'],[0.29763659997843206],True,641.0,641.9498,sub-00,ses-02,an-at,0.0,-0.027098163621925152,0.043195455914857704,0.0006678334018404148,-0.11231284273548534,-0.011219418885831133,0.08728958542697088,0.0
41,cue_centre,pos,posner0,37.0,centre,False,['left'],[0.34316850011236966],True,648.0,646.1905065985526,sub-00,ses-02,an-at,151.0,-0.01253598988801505,-0.02394780812081763,0.0006678334018404148,-0.11231284273548534,-0.011219418885831133,0.08728958542697088,0.0604
42,cue_centre,pos,posner0,38.0,centre,True,['left'],[0.3073367001488805],True,651.0,649.995,sub-00,ses-02,an-at,0.0,0.21789338102260836,0.23274994995831244,0.0006678334018404148,-0.11231284273548534,-0.011219418885831133,0.08728958542697088,0.0
43,cue_right,pos,posner0,39.0,right,False,['left'],[0.3673775000497699],True,651.0,645.0132408575032,sub-00,ses-02,an-at,121.0,0.08875992771136147,0.07315969608060066,0.0006678334018404148,-0.11231284273548534,-0.011219418885831133,0.08728958542697088,0.0484
44,cue_centre,pos,posner0,40.0,centre,True,['right'],[0.3094885000027716],True,647.0,647.282,sub-00,ses-02,an-at,0.0,0.09437899158123453,0.043819810058171864,0.0006678334018404148,-0.11231284273548534,-0.011219418885831133,0.08728958542697088,0.0
45,cue_centre,pos,posner0,41.0,centre,True,['left'],[0.3473069998435676],True,648.0,648.5192780968007,sub-00,ses-02,an-at,62.0,-0.11889100868174834,-0.15339688468338467,0.0006678334018404148,-0.11231284273548534,-0.011219418885831133,0.08728958542697088,0.0248
46,cue_left,pos,posner0,42.0,left,False,['right'],[0.2533021999988705],True,655.0,654.1612,sub-00,ses-02,an-at,0.0,0.03455021840781522,0.02391573523162083,0.0006678334018404148,-0.11231284273548534,-0.011219418885831133,0.08728958542697088,0.0
47,cue_right,pos,posner0,43.0,right,False,['left'],[0.297232500044629],True,652.0,652.0448,sub-00,ses-02,an-at,0.0,-0.06042186898745098,-0.00816233376416095,0.0006678334018404148,-0.11231284273548534,-0.011219418885831133,0.08728958542697088,0.0
48,cue_right,pos,posner0,44.0,right,True,['right'],[0.2892088000662625],True,651.5,658.0977080820265,sub-00,ses-02,an-at,12.0,0.037918764122807036,0.014012146798574161,0.0006678334018404148,-0.11231284273548534,-0.011219418885831133,0.08728958542697088,0.0048
49,cue_centre,pos,posner0,45.0,centre,True,['left'],[0.3252998001407832],True,648.0,645.2555277430121,sub-00,ses-02,an-at,103.0,-0.057436262332655946,0.0005355874964747576,0.0006678334018404148,-0.11231284273548534,-0.011219418885831133,0.08728958542697088,0.0412
50,cue_right,pos,posner0,46.0,right,True,['right'],[0.2712852000258863],True,654.0,650.7563223317617,sub-00,ses-02,an-at,167.0,-0.0024741240770481455,-0.03051646460813536,0.0006678334018404148,-0.11231284273548534,-0.011219418885831133,0.08728958542697088,0.0668
51,cue_left,pos,posner0,47.0,left,True,['left'],[0.30698850005865097],True,647.0,643.2155356380708,sub-00,ses-02,an-at,157.0,-0.03740274891702975,-0.10842115767954698,0.0006678334018404148,-0.11231284273548534,-0.011219418885831133,0.08728958542697088,0.0628
52,cue_right,pos,posner0,48.0,right,True,['right'],[0.2908537001349032],True,650.0,648.741341991342,sub-00,ses-02,an-at,190.0,-0.08171341737624438,-0.07352158426273224,0.0006678334018404148,-0.11231284273548534,-0.011219418885831133,0.08728958542697088,0.076
53,cue_left,pos,posner0,49.0,left,True,['left'],[0.300927700009197],True,645.0,645.797564048719,sub-00,ses-02,an-at,119.0,0.09617473513715634,0.13843022056539162,0.0006678334018404148,-0.11231284273548534,-0.011219418885831133,0.08728958542697088,0.0476
54,cue_right,pos,posner0,50.0,right,False,['left'],[0.30481690005399287],True,617.0,616.692,sub-00,ses-02,an-at,0.0,-0.035427084662931284,-0.003917347448124633,0.0006678334018404148,-0.11231284273548534,-0.011219418885831133,0.08728958542697088,0.0
55,cue_left,pos,posner0,51.0,left,True,['left'],[0.3069095001555979],True,622.5,622.9702044367116,sub-00,ses-02,an-at,201.0,-0.02643567067101864,0.001403011630191941,0.0006678334018404148,-0.11231284273548534,-0.011219418885831133,0.08728958542697088,0.0804
56,cue_centre,pos,posner0,52.0,centre,True,['left'],[0.2986624001059681],True,639.0,639.8738,sub-00,ses-02,an-at,0.0,-0.03882495056685831,-0.11086447174946379,0.0006678334018404148,-0.11231284273548534,-0.011219418885831133,0.08728958542697088,0.0
57,cue_left,pos,posner0,53.0,left,False,['right'],[0.2807165998965502],True,648.0,647.3736,sub-00,ses-02,an-at,0.0,0.03457318329738984,-0.010867059066809907,0.0006678334018404148,-0.11231284273548534,-0.011219418885831133,0.08728958542697088,0.0
58,cue_left,pos,posner0,54.0,left,True,['left'],[0.28860059985890985],True,649.75,649.6302,sub-00,ses-02,an-at,0.0,0.06066699689126452,0.13522830749334205,0.0006678334018404148,-0.11231284273548534,-0.011219418885831133,0.08728958542697088,0.0
59,cue_centre,pos,posner0,55.0,centre,True,['right'],[0.29267219989560544],True,651.0,651.0396,sub-00,ses-02,an-at,0.0,-0.04904054420315585,-0.04090878988524492,0.0006678334018404148,-0.11231284273548534,-0.011219418885831133,0.08728958542697088,0.0
60,cue_right,pos,posner0,56.0,right,False,['left'],[0.2787718998733908],True,655.0,655.2818,sub-00,ses-02,an-at,0.0,0.009903052293063363,-0.028416410163731955,0.0006678334018404148,-0.11231284273548534,-0.011219418885831133,0.08728958542697088,0.0
61,cue_left,pos,posner0,57.0,left,True,['left'],[0.3125831999350339],True,655.0,655.6618898343037,sub-00,ses-02,an-at,267.0,0.10470461229703659,0.14573919600923604,0.0006678334018404148,-0.11231284273548534,-0.011219418885831133,0.08728958542697088,0.1068
62,cue_left,pos,posner0,58.0,left,True,['left'],[0.2722958999220282],True,647.0,646.7985042735042,sub-00,ses-02,an-at,160.0,-0.09406138352583204,-0.07429154886000808,0.0006678334018404148,-0.11231284273548534,-0.011219418885831133,0.08728958542697088,0.064
63,cue_centre,pos,posner0,59.0,centre,True,['right'],[0.3285242000129074],True,659.0,658.931,sub-00,ses-02,an-at,0.0,0.05161053011787925,0.08150827716391922,0.0006678334018404148,-0.11231284273548534,-0.011219418885831133,0.08728958542697088,0.0
64,cue_left,pos,posner0,60.0,left,True,['left'],[0.29256429988890886],True,658.0,656.9294689906769,sub-00,ses-02,an-at,33.0,0.14231074031708152,0.14015380094010774,0.0006678334018404148,-0.11231284273548534,-0.011219418885831133,0.08728958542697088,0.0132
65,cue_centre,pos,posner0,61.0,centre,False,['left'],[0.28638359997421503],True,665.0,664.8819694244604,sub-00,ses-02,an-at,276.0,-0.253088651100413,-0.13737243415373018,0.0006678334018404148,-0.11231284273548534,-0.011219418885831133,0.08728958542697088,0.1104
66,cue_right,pos,posner0,62.0,right,False,['left'],[0.33235929999500513],True,661.0,659.4804253262446,sub-00,ses-02,an-at,430.0,-0.018420203573188857,-0.008106110844626502,0.0006678334018404148,-0.11231284273548534,-0.011219418885831133,0.08728958542697088,0.172
67,cue_left,pos,posner0,63.0,left,False,['right'],[0.34251860016956925],True,645.0,644.7902,sub-00,ses-02,an-at,0.0,0.10401214597233072,0.0008115579975349192,0.0006678334018404148,-0.11231284273548534,-0.011219418885831133,0.08728958542697088,0.0
68,cue_left,pos,posner0,64.0,left,False,['right'],[0.3241367000155151],True,656.5,656.3790560471977,sub-00,ses-02,an-at,127.0,0.0553758008528701,0.018516701777751412,0.0006678334018404148,-0.11231284273548534,-0.011219418885831133,0.08728958542697088,0.0508
69,cue_left,pos,posner0,65.0,left,False,['right'],[0.33600410004146397],True,639.0,633.3714,sub-00,ses-02,an-at,0.0,-0.16922417329144135,-0.14567139854377587,0.0006678334018404148,-0.11231284273548534,-0.011219418885831133,0.08728958542697088,0.0
70,cue_right,pos,posner0,66.0,right,False,['left'],[0.28624600009061396],True,656.0,655.2002,sub-00,ses-02,an-at,0.0,-0.04629573223553167,-0.04510693174223665,0.0006678334018404148,-0.11231284273548534,-0.011219418885831133,0.08728958542697088,0.0
71,cue_right,pos,posner0,67.0,right,True,['right'],[0.3060393000487238],True,656.0,656.7164,sub-00,ses-02,an-at,0.0,0.0012052675887991005,0.009589098099230201,0.0006678334018404148,-0.11231284273548534,-0.011219418885831133,0.08728958542697088,0.0
72,cue_left,pos,posner0,68.0,left,True,['left'],[0.3039843998849392],True,648.0,648.2599660729431,sub-00,ses-02,an-at,142.0,-0.0918622378953643,-0.036501004390598335,0.0006678334018404148,-0.11231284273548534,-0.011219418885831133,0.08728958542697088,0.0568
73,cue_left,pos,posner0,69.0,left,True,['left'],[0.3139166000764817],True,649.0,649.1822,sub-00,ses-02,an-at,0.0,0.009541042512172917,0.020173057764868964,0.0006678334018404148,-0.11231284273548534,-0.011219418885831133,0.08728958542697088,0.0
74,cue_right,pos,posner0,70.0,right,True,['right'],[0.31014770013280213],True,654.5,655.2680433039294,sub-00,ses-02,an-at,6.0,0.03860584806248603,0.04371877354226168,0.0006678334018404148,-0.11231284273548534,-0.011219418885831133,0.08728958542697088,0.0024
75,cue_centre,pos,posner0,71.0,centre,True,['right'],[0.2959972000680864],True,654.5,655.4769360981803,sub-00,ses-02,an-at,137.0,-0.017383243379982396,0.013555110458364664,0.0006678334018404148,-0.11231284273548534,-0.011219418885831133,0.08728958542697088,0.0548
76,cue_left,pos,posner0,72.0,left,True,['left'],[0.31989569985307753],True,652.5,653.7076,sub-00,ses-02,an-at,0.0,-0.11706147286735957,-0.15904609417737176,0.0006678334018404148,-0.11231284273548534,-0.011219418885831133,0.08728958542697088,0.0
77,cue_left,pos,posner0,73.0,left,False,['right'],[0.3357699001207948],True,653.0,653.1014,sub-00,ses-02,an-at,0.0,-0.18423415705746762,-0.16299038677541888,0.0006678334018404148,-0.11231284273548534,-0.011219418885831133,0.08728958542697088,0.0
78,cue_right,pos,posner0,74.0,right,False,['left'],[0.31800299999304116],True,654.0,653.6681798530047,sub-00,ses-02,an-at,187.0,0.01115981878542386,0.0797968643176815,0.0006678334018404148,-0.11231284273548534,-0.011219418885831133,0.08728958542697088,0.0748
79,cue_centre,pos,posner0,75.0,centre,False,['right'],[0.2817120000254363],True,636.0,637.8386,sub-00,ses-02,an-at,0.0,-0.03170116300453668,-0.044042823220821085,0.0006678334018404148,-0.11231284273548534,-0.011219418885831133,0.08728958542697088,0.0
80,cue_left,pos,posner0,76.0,left,False,['right'],[0.30179559998214245],True,639.0,636.2569124423964,sub-00,ses-02,an-at,764.0,-0.16016902828551585,-0.10077626008338855,0.0006678334018404148,-0.11231284273548534,-0.011219418885831133,0.08728958542697088,0.3056
81,cue_right,pos,posner0,77.0,right,True,['right'],[0.29572550021111965],True,639.0,639.4017328825021,sub-00,ses-02,an-at,134.0,0.021387344860614832,-0.0120653465012992,0.0006678334018404148,-0.11231284273548534,-0.011219418885831133,0.08728958542697088,0.0536
82,cue_right,pos,posner0,78.0,right,True,['right'],[0.2915239001158625],True,646.0,646.1618690029203,sub-00,ses-02,an-at,103.0,0.10903420089979628,0.08000355615903534,0.0006678334018404148,-0.11231284273548534,-0.011219418885831133,0.08728958542697088,0.0412
83,cue_left,pos,posner0,79.0,left,False,['right'],[0.28552170004695654],True,652.0,651.6358,sub-00,ses-02,an-at,0.0,-0.03275714042758899,0.004166549622859986,0.0006678334018404148,-0.11231284273548534,-0.011219418885831133,0.08728958542697088,0.0
84,cue_right,pos,posner0,80.0,right,True,['right'],[0.29149689991027117],True,656.0,656.185,sub-00,ses-02,an-at,0.0,0.028538177250812362,0.0990889264763386,0.0006678334018404148,-0.11231284273548534,-0.011219418885831133,0.08728958542697088,0.0
85,cue_left,pos,posner0,81.0,left,True,['left'],[0.2653873998206109],True,651.0,651.181,sub-00,ses-02,an-at,0.0,-0.019643230073268445,-0.0438142363662168,0.0006678334018404148,-0.11231284273548534,-0.011219418885831133,0.08728958542697088,0.0
86,cue_right,pos,posner0,82.0,right,False,['left'],[0.30732799996621907],True,650.0,652.7132,sub-00,ses-02,an-at,0.0,-0.22401046839127525,-0.21813783341859963,0.0006678334018404148,-0.11231284273548534,-0.011219418885831133,0.08728958542697088,0.0
87,cue_left,pos,posner0,83.0,left,True,['left'],[0.36931910016573966],True,648.0,646.6548,sub-00,ses-02,an-at,0.0,0.09316643941821334,0.06856767943299649,0.0006678334018404148,-0.11231284273548534,-0.011219418885831133,0.08728958542697088,0.0
88,cue_left,pos,posner0,84.0,left,True,['left'],[0.2912530000321567],True,653.0,653.08,sub-00,ses-02,an-at,0.0,0.011585924519388112,0.03841815895459846,0.0006678334018404148,-0.11231284273548534,-0.011219418885831133,0.08728958542697088,0.0
89,cue_centre,pos,posner0,85.0,centre,False,['left'],[0.29119640006683767],True,651.0,651.8816352739726,sub-00,ses-02,an-at,164.0,-0.1612192936671616,-0.09854973698248319,0.0006678334018404148,-0.11231284273548534,-0.011219418885831133,0.08728958542697088,0.0656
90,cue_right,pos,posner0,86.0,right,True,['right'],[0.2852362000849098],True,654.0,653.803,sub-00,ses-02,an-at,0.0,-0.04666073691921719,0.03225539857603758,0.0006678334018404148,-0.11231284273548534,-0.011219418885831133,0.08728958542697088,0.0
91,cue_centre,pos,posner0,87.0,centre,True,['left'],[0.29511369997635484],True,657.0,655.3309978768577,sub-00,ses-02,an-at,145.0,-0.038371593683171626,-0.05226356988874902,0.0006678334018404148,-0.11231284273548534,-0.011219418885831133,0.08728958542697088,0.058
92,cue_left,pos,posner0,88.0,left,True,['left'],[0.33129130001179874],True,659.0,658.5376,sub-00,ses-02,an-at,0.0,0.023775425306182478,-0.0009756823237616288,0.0006678334018404148,-0.11231284273548534,-0.011219418885831133,0.08728958542697088,0.0
93,cue_left,pos,posner0,89.0,left,True,['left'],[0.32723250007256866],True,661.0,661.0414,sub-00,ses-02,an-at,0.0,0.0752326304660754,0.07127443762265163,0.0006678334018404148,-0.11231284273548534,-0.011219418885831133,0.08728958542697088,0.0
94,cue_centre,pos,posner0,90.0,centre,True,['right'],[0.34282519994303584],True,663.0,660.2899867080195,sub-00,ses-02,an-at,243.0,0.08475214989910633,0.07530588649988092,0.0006678334018404148,-0.11231284273548534,-0.011219418885831133,0.08728958542697088,0.0972
95,cue_right,pos,posner0,91.0,right,True,['right'],[0.4008796999696642],True,673.0,672.6156177156178,sub-00,ses-02,an-at,347.0,-0.07645037685062024,-0.0938163923436245,0.0006678334018404148,-0.11231284273548534,-0.011219418885831133,0.08728958542697088,0.1388
96,cue_right,pos,posner0,92.0,right,True,['right'],[0.31290780007839203],True,675.0,673.4673776662485,sub-00,ses-02,an-at,109.0,0.00600172973613047,-0.06152405234204004,0.0006678334018404148,-0.11231284273548534,-0.011219418885831133,0.08728958542697088,0.0436
97,cue_centre,pos,posner0,93.0,centre,False,['left'],[0.30676449998281896],True,666.0,661.3909360440491,sub-00,ses-02,an-at,139.0,0.02423216580420777,0.07143348341072965,0.0006678334018404148,-0.11231284273548534,-0.011219418885831133,0.08728958542697088,0.0556
98,cue_right,pos,posner0,94.0,right,True,['right'],[0.2948894000146538],True,661.5,661.5018,sub-00,ses-02,an-at,0.0,-0.15581414657244108,-0.1009279215780355,0.0006678334018404148,-0.11231284273548534,-0.011219418885831133,0.08728958542697088,0.0
99,cue_right,pos,posner0,95.0,right,False,['left'],[0.330811700085178],True,656.0,655.2583157894737,sub-00,ses-02,an-at,125.0,0.24572559074649505,0.21806073495718442,0.0006678334018404148,-0.11231284273548534,-0.011219418885831133,0.08728958542697088,0.05
100,cue_centre,pos,posner0,96.0,centre,True,['left'],[0.2947253999300301],True,673.5,670.6513513513513,sub-00,ses-02,an-at,95.0,-0.05033996563811954,-0.05790719707270383,0.0006678334018404148,-0.11231284273548534,-0.011219418885831133,0.08728958542697088,0.038
101,cue_centre,pos,posner0,97.0,centre,True,['left'],[0.3045417000539601],True,667.0,669.4076,sub-00,ses-02,an-at,0.0,0.1005379489897975,0.1564940050543127,0.0006678334018404148,-0.11231284273548534,-0.011219418885831133,0.08728958542697088,0.0
102,cue_left,pos,posner0,98.0,left,True,"['right', 'left']","[0.3184716999530792, 0.9264799000229686]",False,656.5,654.8392932267565,sub-00,ses-02,an-at,123.0,-0.005772012826187129,0.021188054144260896,0.0006678334018404148,-0.11231284273548534,-0.011219418885831133,0.08728958542697088,0.0492
103,cue_right,pos,posner0,99.0,right,True,['right'],[0.28443260001949966],True,659.5,657.5062945866555,sub-00,ses-02,an-at,117.0,0.0366267208647421,0.05642285358713296,0.0006678334018404148,-0.11231284273548534,-0.011219418885831133,0.08728958542697088,0.0468
104,cue_right,pos,posner1,0.0,right,True,['right'],[0.3151919001247734],True,665.0,665.6964,sub-00,ses-02,an-at,0.0,0.09371573669305168,0.034249899677045746,0.0006678334018404148,-0.11231284273548534,-0.03855319381307128,0.06546139956081432,0.0
105,cue_left,pos,posner1,1.0,left,False,['right'],[0.3074201999697834],True,668.0,666.8118,sub-00,ses-02,an-at,0.0,0.007757602176469478,0.03293414738037195,0.0006678334018404148,-0.11231284273548534,-0.03855319381307128,0.06546139956081432,0.0
106,cue_right,pos,posner1,2.0,right,True,['right'],[0.31339000002481043],True,679.0,677.841,sub-00,ses-02,an-at,0.0,-0.08252352521065487,-0.04623632604676576,0.0006678334018404148,-0.11231284273548534,-0.03855319381307128,0.06546139956081432,0.0
107,cue_left,pos,posner1,3.0,left,True,['left'],[0.28715340001508594],True,679.0,672.941361003861,sub-00,ses-02,an-at,428.0,-0.012249406174701334,-0.0005785975429807346,0.0006678334018404148,-0.11231284273548534,-0.03855319381307128,0.06546139956081432,0.1712
108,cue_right,pos,posner1,4.0,right,True,['right'],[0.2951551000587642],True,673.0,670.1448076127431,sub-00,ses-02,an-at,83.0,0.06792265560509758,0.05236444446835293,0.0006678334018404148,-0.11231284273548534,-0.03855319381307128,0.06546139956081432,0.0332
109,cue_left,pos,posner1,5.0,left,False,['right'],[0.41697979997843504],True,673.0,675.3782894736842,sub-00,ses-02,an-at,371.0,0.0076437800478078785,0.02918408826695276,0.0006678334018404148,-0.11231284273548534,-0.03855319381307128,0.06546139956081432,0.1484
110,cue_right,pos,posner1,6.0,right,True,['right'],[0.2950806999579072],True,671.0,671.1332,sub-00,ses-02,an-at,0.0,0.13302635470618518,0.13563380321174162,0.0006678334018404148,-0.11231284273548534,-0.03855319381307128,0.06546139956081432,0.0
111,cue_centre,pos,posner1,7.0,centre,True,['left'],[0.30309009994380176],True,666.0,665.8562,sub-00,ses-02,an-at,0.0,-0.13660847628876,-0.11734713774009384,0.0006678334018404148,-0.11231284273548534,-0.03855319381307128,0.06546139956081432,0.0
112,cue_right,pos,posner1,8.0,right,False,['left'],[0.34280039998702705],True,669.0,669.0814,sub-00,ses-02,an-at,0.0,-0.05863132282587576,-0.07214077511437866,0.0006678334018404148,-0.11231284273548534,-0.03855319381307128,0.06546139956081432,0.0
113,cue_right,pos,posner1,9.0,right,True,['right'],[0.32294860016554594],True,668.5,665.8626050420168,sub-00,ses-02,an-at,120.0,-0.13442421149987238,-0.1143321932256387,0.0006678334018404148,-0.11231284273548534,-0.03855319381307128,0.06546139956081432,0.048
114,cue_left,pos,posner1,10.0,left,True,['left'],[0.3267360997851938],True,670.5,670.7198,sub-00,ses-02,an-at,0.0,-0.056483404427048856,-0.020029900680641206,0.0006678334018404148,-0.11231284273548534,-0.03855319381307128,0.06546139956081432,0.0
115,cue_right,pos,posner1,11.0,right,True,['right'],[0.46264149993658066],True,678.5,677.7996,sub-00,ses-02,an-at,0.0,-0.11039888649069063,-0.11204497557434132,0.0006678334018404148,-0.11231284273548534,-0.03855319381307128,0.06546139956081432,0.0
116,cue_right,pos,posner1,12.0,right,True,['right'],[0.2647389001213014],True,674.0,672.1522,sub-00,ses-02,an-at,0.0,-0.26528349246491073,-0.23196048855272697,0.0006678334018404148,-0.11231284273548534,-0.03855319381307128,0.06546139956081432,0.0
117,cue_centre,pos,posner1,13.0,centre,True,['right'],[0.3027576000895351],True,667.0,667.1556,sub-00,ses-02,an-at,0.0,-0.18574164901429913,-0.17153517239911106,0.0006678334018404148,-0.11231284273548534,-0.03855319381307128,0.06546139956081432,0.0
118,cue_right,pos,posner1,14.0,right,True,['right'],[0.29052619985304773],True,665.0,665.4266,sub-00,ses-02,an-at,0.0,-0.04166890353321717,-0.008644625572809789,0.0006678334018404148,-0.11231284273548534,-0.03855319381307128,0.06546139956081432,0.0
119,cue_left,pos,posner1,15.0,left,True,['left'],[0.28872719989158213],True,663.5,662.7728,sub-00,ses-02,an-at,0.0,-0.1421226410258556,-0.08848589483961386,0.0006678334018404148,-0.11231284273548534,-0.03855319381307128,0.06546139956081432,0.0
120,cue_left,pos,posner1,16.0,left,True,['left'],[0.3364640998188406],True,665.5,665.6266,sub-00,ses-02,an-at,0.0,-0.02854554669535888,-0.06613064689622213,0.0006678334018404148,-0.11231284273548534,-0.03855319381307128,0.06546139956081432,0.0
121,cue_right,pos,posner1,17.0,right,True,['right'],[0.2744443998672068],True,676.0,673.7036,sub-00,ses-02,an-at,0.0,-0.002777806045183037,0.035268368762525405,0.0006678334018404148,-0.11231284273548534,-0.03855319381307128,0.06546139956081432,0.0
122,cue_centre,pos,posner1,18.0,centre,True,['right'],[0.2865760000422597],True,666.0,665.745,sub-00,ses-02,an-at,0.0,-0.019165149186474523,-0.05687157912491979,0.0006678334018404148,-0.11231284273548534,-0.03855319381307128,0.06546139956081432,0.0
123,cue_right,pos,posner1,19.0,right,False,['left'],[0.302238899981603],True,669.0,668.3594,sub-00,ses-02,an-at,0.0,0.08207720228785435,0.05365452214893095,0.0006678334018404148,-0.11231284273548534,-0.03855319381307128,0.06546139956081432,0.0
124,cue_centre,pos,posner1,20.0,centre,True,['right'],[0.24047730001620948],True,661.0,660.7278,sub-00,ses-02,an-at,0.0,-0.1287440949367784,-0.10313509798442454,0.0006678334018404148,-0.11231284273548534,-0.03855319381307128,0.06546139956081432,0.0
125,cue_right,pos,posner1,21.0,right,False,['left'],[0.2784684000071138],True,667.0,667.0576,sub-00,ses-02,an-at,0.0,0.26448570510444613,0.21414161222908884,0.0006678334018404148,-0.11231284273548534,-0.03855319381307128,0.06546139956081432,0.0
126,cue_centre,pos,posner1,22.0,centre,True,['left'],[0.2924171001650393],True,665.0,663.3746,sub-00,ses-02,an-at,0.0,-0.023541403180182094,0.04468021766635844,0.0006678334018404148,-0.11231284273548534,-0.03855319381307128,0.06546139956081432,0.0
127,cue_left,pos,posner1,23.0,left,False,['right'],[0.28627289994619787],True,656.5,659.0752,sub-00,ses-02,an-at,0.0,0.06151584644650074,0.03751365075939168,0.0006678334018404148,-0.11231284273548534,-0.03855319381307128,0.06546139956081432,0.0
128,cue_centre,pos,posner1,24.0,centre,False,['left'],[0.30424669990316033],True,670.0,669.3064,sub-00,ses-02,an-at,0.0,0.18885255478032542,0.1815715021722174,0.0006678334018404148,-0.11231284273548534,-0.03855319381307128,0.06546139956081432,0.0
129,cue_left,pos,posner1,25.0,left,True,['left'],[0.2859556002076715],True,660.5,659.7386,sub-00,ses-02,an-at,0.0,-0.05167394289882669,-0.0715584210996394,0.0006678334018404148,-0.11231284273548534,-0.03855319381307128,0.06546139956081432,0.0
130,cue_right,pos,posner1,26.0,right,False,['left'],[0.26003280002623796],True,670.0,673.2648,sub-00,ses-02,an-at,0.0,-0.16557584800447744,-0.13925573515854286,0.0006678334018404148,-0.11231284273548534,-0.03855319381307128,0.06546139956081432,0.0
131,cue_left,pos,posner1,27.0,left,True,['left'],[0.2939923000521958],True,663.0,662.0394,sub-00,ses-02,an-at,0.0,-0.1949390674608422,-0.17811173349295828,0.0006678334018404148,-0.11231284273548534,-0.03855319381307128,0.06546139956081432,0.0
132,cue_right,pos,posner1,28.0,right,True,['right'],[0.3120754000265151],True,671.0,670.9208,sub-00,ses-02,an-at,0.0,-0.10889393692529732,-0.08075010462829346,0.0006678334018404148,-0.11231284273548534,-0.03855319381307128,0.06546139956081432,0.0
133,cue_left,pos,posner1,29.0,left,True,['left'],[0.30220889998599887],True,657.0,656.5322,sub-00,ses-02,an-at,0.0,-0.09169862838302006,-0.11224039082255816,0.0006678334018404148,-0.11231284273548534,-0.03855319381307128,0.06546139956081432,0.0
134,cue_right,pos,posner1,30.0,right,False,['left'],[0.28789049992337823],True,663.0,665.4258,sub-00,ses-02,an-at,0.0,-0.1291435233762584,-0.15979656348908194,0.0006678334018404148,-0.11231284273548534,-0.03855319381307128,0.06546139956081432,0.0
135,cue_left,pos,posner1,31.0,left,True,['left'],[0.28190320008434355],True,665.0,663.4547738693467,sub-00,ses-02,an-at,112.0,-0.10033850981618134,-0.09064304605924448,0.0006678334018404148,-0.11231284273548534,-0.03855319381307128,0.06546139956081432,0.0448
136,cue_left,pos,posner1,32.0,left,True,['left'],[0.2778387002181262],True,667.0,669.9098,sub-00,ses-02,an-at,0.0,0.2634558435826503,0.2666599139117904,0.0006678334018404148,-0.11231284273548534,-0.03855319381307128,0.06546139956081432,0.0
137,cue_centre,pos,posner1,33.0,centre,False,['left'],[0.28976449999026954],True,679.0,679.6694,sub-00,ses-02,an-at,0.0,0.08062321264499829,0.08546860138108325,0.0006678334018404148,-0.11231284273548534,-0.03855319381307128,0.06546139956081432,0.0
138,cue_centre,pos,posner1,34.0,centre,True,['right'],[0.27562219998799264],True,667.0,666.5292,sub-00,ses-02,an-at,0.0,-0.076962181133123,-0.10620080005277854,0.0006678334018404148,-0.11231284273548534,-0.03855319381307128,0.06546139956081432,0.0
139,cue_right,pos,posner1,35.0,right,True,['right'],[0.3015995000023395],True,671.0,670.4831932773109,sub-00,ses-02,an-at,120.0,-0.04111555840146109,-0.04282199755783498,0.0006678334018404148,-0.11231284273548534,-0.03855319381307128,0.06546139956081432,0.048
140,cue_centre,pos,posner1,36.0,centre,True,['left'],[0.2755873000714928],True,659.5,659.5348,sub-00,ses-02,an-at,0.0,-0.1726682521259736,-0.09095526554966932,0.0006678334018404148,-0.11231284273548534,-0.03855319381307128,0.06546139956081432,0.0
141,cue_left,pos,posner1,37.0,left,True,['left'],[0.2975818000268191],True,668.0,668.4108,sub-00,ses-02,an-at,0.0,0.06291069214909077,0.061420938184542445,0.0006678334018404148,-0.11231284273548534,-0.03855319381307128,0.06546139956081432,0.0
142,cue_centre,pos,posner1,38.0,centre,True,['right'],[0.2775160998571664],True,661.0,661.1604,sub-00,ses-02,an-at,0.0,-0.07980454178653182,-0.058705144614450366,0.0006678334018404148,-0.11231284273548534,-0.03855319381307128,0.06546139956081432,0.0
143,cue_right,pos,posner1,39.0,right,True,['right'],[0.24943329999223351],True,662.0,662.5124895920067,sub-00,ses-02,an-at,97.0,0.044856628861125285,0.030604594225873846,0.0006678334018404148,-0.11231284273548534,-0.03855319381307128,0.06546139956081432,0.0388
144,cue_centre,pos,posner1,40.0,centre,True,['left'],[0.2972929000388831],True,663.0,662.8177412557943,sub-00,ses-02,an-at,127.0,-0.008752825448935192,-0.02393719423939605,0.0006678334018404148,-0.11231284273548534,-0.03855319381307128,0.06546139956081432,0.0508
145,cue_centre,pos,posner1,41.0,centre,True,['left'],[0.45940240006893873],True,677.0,674.6588,sub-00,ses-02,an-at,0.0,-0.007888211770804131,0.0028884304066687945,0.0006678334018404148,-0.11231284273548534,-0.03855319381307128,0.06546139956081432,0.0
146,cue_left,pos,posner1,42.0,left,True,['left'],[0.2873664000071585],True,667.0,668.249,sub-00,ses-02,an-at,0.0,-0.16074452005903844,-0.14533200764123794,0.0006678334018404148,-0.11231284273548534,-0.03855319381307128,0.06546139956081432,0.0
147,cue_right,pos,posner1,43.0,right,False,['left'],[0.34549560002051294],True,662.0,661.7616,sub-00,ses-02,an-at,0.0,-0.03596977342255171,-0.03339780591431741,0.0006678334018404148,-0.11231284273548534,-0.03855319381307128,0.06546139956081432,0.0
148,cue_centre,pos,posner1,44.0,centre,False,['right'],[0.32309760013595223],True,661.0,662.2844284428443,sub-00,ses-02,an-at,278.0,-0.15586207328991475,-0.1338875468609776,0.0006678334018404148,-0.11231284273548534,-0.03855319381307128,0.06546139956081432,0.1112
149,cue_left,pos,posner1,45.0,left,True,['left'],[0.38119479990564287],True,667.5,668.6924045321024,sub-00,ses-02,an-at,117.0,-0.19012278250952297,-0.18210125116117787,0.0006678334018404148,-0.11231284273548534,-0.03855319381307128,0.06546139956081432,0.0468
150,cue_centre,pos,posner1,46.0,centre,True,['left'],[0.33904609992168844],True,663.0,662.8682,sub-00,ses-02,an-at,0.0,0.008485038912370398,-0.02848218978827194,0.0006678334018404148,-0.11231284273548534,-0.03855319381307128,0.06546139956081432,0.0
151,cue_left,pos,posner1,47.0,left,True,['left'],[0.30700610019266605],True,660.0,659.857,sub-00,ses-02,an-at,0.0,-0.06405594338767649,-0.053471005788774596,0.0006678334018404148,-0.11231284273548534,-0.03855319381307128,0.06546139956081432,0.0
152,cue_centre,pos,posner1,48.0,centre,True,['right'],[0.35294630005955696],True,663.0,662.5214,sub-00,ses-02,an-at,0.0,-0.2998612148809526,-0.24421044336421033,0.0006678334018404148,-0.11231284273548534,-0.03855319381307128,0.06546139956081432,0.0
153,cue_centre,pos,posner1,49.0,centre,True,['left'],[0.3269045997876674],True,666.0,665.916,sub-00,ses-02,an-at,0.0,-0.010855531935573256,0.007800286092116096,0.0006678334018404148,-0.11231284273548534,-0.03855319381307128,0.06546139956081432,0.0
154,cue_left,pos,posner1,50.0,left,True,['left'],[0.2927261998411268],True,655.0,655.458,sub-00,ses-02,an-at,0.0,-0.0927285968662421,-0.11051711356877629,0.0006678334018404148,-0.11231284273548534,-0.03855319381307128,0.06546139956081432,0.0
155,cue_left,pos,posner1,51.0,left,False,['right'],[0.276841799961403],True,663.0,664.4818,sub-00,ses-02,an-at,0.0,0.12739330905112362,0.10738306718313397,0.0006678334018404148,-0.11231284273548534,-0.03855319381307128,0.06546139956081432,0.0
156,cue_right,pos,posner1,52.0,right,True,['right'],[0.29278430016711354],True,672.0,672.7684,sub-00,ses-02,an-at,0.0,-0.154429940919657,-0.09442836704628513,0.0006678334018404148,-0.11231284273548534,-0.03855319381307128,0.06546139956081432,0.0
157,cue_left,pos,posner1,53.0,left,True,['left'],[0.3226131999399513],True,668.0,667.3453738910013,sub-00,ses-02,an-at,133.0,-0.03339179200582784,0.026452312540961122,0.0006678334018404148,-0.11231284273548534,-0.03855319381307128,0.06546139956081432,0.0532
158,cue_left,pos,posner1,54.0,left,False,['right'],[0.27474509994499385],True,670.0,669.2456,sub-00,ses-02,an-at,0.0,-0.04507957786778372,-0.012274802986029391,0.0006678334018404148,-0.11231284273548534,-0.03855319381307128,0.06546139956081432,0.0
159,cue_centre,pos,posner1,55.0,centre,True,['right'],[0.3165842001326382],True,667.0,667.1918067226891,sub-00,ses-02,an-at,120.0,0.14924947396552973,0.13170123316306648,0.0006678334018404148,-0.11231284273548534,-0.03855319381307128,0.06546139956081432,0.048
160,cue_right,pos,posner1,56.0,right,True,['right'],[0.3045187999960035],True,668.5,671.7346,sub-00,ses-02,an-at,0.0,0.09516466782866484,0.14850810205377585,0.0006678334018404148,-0.11231284273548534,-0.03855319381307128,0.06546139956081432,0.0
161,cue_left,pos,posner1,57.0,left,False,['right'],[0.30460540018975735],True,660.0,661.0798,sub-00,ses-02,an-at,0.0,-0.09178535864127582,-0.1293211973204794,0.0006678334018404148,-0.11231284273548534,-0.03855319381307128,0.06546139956081432,0.0
162,cue_right,pos,posner1,58.0,right,True,['right'],[0.3305490999482572],True,664.0,664.395,sub-00,ses-02,an-at,0.0,-0.19670607683860192,-0.15135210365355548,0.0006678334018404148,-0.11231284273548534,-0.03855319381307128,0.06546139956081432,0.0
163,cue_left,pos,posner1,59.0,left,False,['right'],[0.32234330009669065],True,661.0,661.7800167926113,sub-00,ses-02,an-at,118.0,0.029347098895525975,0.02446942302924876,0.0006678334018404148,-0.11231284273548534,-0.03855319381307128,0.06546139956081432,0.0472
164,cue_left,pos,posner1,60.0,left,True,['left'],[0.3146839998662472],True,670.0,671.172,sub-00,ses-02,an-at,0.0,-0.12109493022682272,-0.07977889671342678,0.0006678334018404148,-0.11231284273548534,-0.03855319381307128,0.06546139956081432,0.0
165,cue_left,pos,posner1,61.0,left,False,['right'],[0.2683413999620825],True,658.0,658.3704,sub-00,ses-02,an-at,0.0,-0.14149236367182308,-0.1612220894813909,0.0006678334018404148,-0.11231284273548534,-0.03855319381307128,0.06546139956081432,0.0
166,cue_right,pos,posner1,62.0,right,True,['right'],[0.28843129985034466],True,662.5,661.8992,sub-00,ses-02,an-at,0.0,-0.11023458001432859,-0.1275708643925605,0.0006678334018404148,-0.11231284273548534,-0.03855319381307128,0.06546139956081432,0.0
167,cue_left,pos,posner1,63.0,left,True,['left'],[0.24021709989756346],True,662.0,662.926,sub-00,ses-02,an-at,0.0,0.1049299462321146,0.12480587391316562,0.0006678334018404148,-0.11231284273548534,-0.03855319381307128,0.06546139956081432,0.0
168,cue_right,pos,posner1,64.0,right,True,['right'],[0.29425429995171726],True,662.0,662.3244,sub-00,ses-02,an-at,0.0,0.04093932598313977,0.03155717398053575,0.0006678334018404148,-0.11231284273548534,-0.03855319381307128,0.06546139956081432,0.0
169,cue_left,pos,posner1,65.0,left,True,['left'],[0.29620059998705983],True,659.0,657.4589098532495,sub-00,ses-02,an-at,115.0,-0.04008686568903738,-0.07152497120474523,0.0006678334018404148,-0.11231284273548534,-0.03855319381307128,0.06546139956081432,0.046
170,cue_left,pos,posner1,66.0,left,True,['left'],[0.266109999967739],True,668.0,668.0245098039215,sub-00,ses-02,an-at,154.0,0.01676116104967789,0.00836611411021686,0.0006678334018404148,-0.11231284273548534,-0.03855319381307128,0.06546139956081432,0.0616
171,cue_right,pos,posner1,67.0,right,True,['right'],[0.29608720005489886],True,662.0,661.1686,sub-00,ses-02,an-at,0.0,-0.11451168262334097,-0.09175913199572276,0.0006678334018404148,-0.11231284273548534,-0.03855319381307128,0.06546139956081432,0.0
172,cue_left,pos,posner1,68.0,left,False,['right'],[0.30793310003355145],True,663.0,662.0716,sub-00,ses-02,an-at,0.0,-0.11503163103092409,-0.07591826570285873,0.0006678334018404148,-0.11231284273548534,-0.03855319381307128,0.06546139956081432,0.0
173,cue_right,pos,posner1,69.0,right,False,['left'],[0.29387050005607307],True,667.0,667.4914,sub-00,ses-02,an-at,0.0,0.09880798430592742,0.14176196935591473,0.0006678334018404148,-0.11231284273548534,-0.03855319381307128,0.06546139956081432,0.0
174,cue_centre,pos,posner1,70.0,centre,True,['left'],[0.2540146999526769],True,661.0,661.0061155630535,sub-00,ses-02,an-at,129.0,0.12778842867643625,0.10975359138386014,0.0006678334018404148,-0.11231284273548534,-0.03855319381307128,0.06546139956081432,0.0516
175,cue_centre,pos,posner1,71.0,centre,False,['right'],[0.29577520000748336],True,668.0,665.2354077253219,sub-00,ses-02,an-at,170.0,-0.06562172840007696,-0.10673779283209718,0.0006678334018404148,-0.11231284273548534,-0.03855319381307128,0.06546139956081432,0.068
176,cue_right,pos,posner1,72.0,right,False,['left'],[0.2900423000101],True,663.0,662.8768564356436,sub-00,ses-02,an-at,76.0,0.14176868914140964,0.1652538228923055,0.0006678334018404148,-0.11231284273548534,-0.03855319381307128,0.06546139956081432,0.0304
177,cue_left,pos,posner1,73.0,left,True,['left'],[0.2937850998714566],True,669.0,668.4886,sub-00,ses-02,an-at,0.0,0.15751854411597332,0.15427960152077322,0.0006678334018404148,-0.11231284273548534,-0.03855319381307128,0.06546139956081432,0.0
178,cue_left,pos,posner1,74.0,left,True,['left'],[0.3157206999603659],True,662.0,661.8006,sub-00,ses-02,an-at,0.0,0.014182898558231068,-0.0013864916926160731,0.0006678334018404148,-0.11231284273548534,-0.03855319381307128,0.06546139956081432,0.0
179,cue_centre,pos,posner1,75.0,centre,True,['left'],[0.28161390009336174],True,674.0,674.2848,sub-00,ses-02,an-at,0.0,-0.030172903364576037,-0.01922060800825734,0.0006678334018404148,-0.11231284273548534,-0.03855319381307128,0.06546139956081432,0.0
180,cue_centre,pos,posner1,76.0,centre,True,['left'],[0.28960679983720183],True,660.0,659.7610794207986,sub-00,ses-02,an-at,221.0,-0.12185199545096749,-0.09229333867216075,0.0006678334018404148,-0.11231284273548534,-0.03855319381307128,0.06546139956081432,0.0884
181,cue_left,pos,posner1,77.0,left,True,['left'],[0.29767500003799796],True,665.0,664.3466,sub-00,ses-02,an-at,0.0,-0.0170443596515346,-0.05241135586712577,0.0006678334018404148,-0.11231284273548534,-0.03855319381307128,0.06546139956081432,0.0
182,cue_centre,pos,posner1,78.0,centre,True,['left'],[0.31159939989447594],True,661.5,661.696,sub-00,ses-02,an-at,0.0,-0.04311864473158793,-0.06355952301599216,0.0006678334018404148,-0.11231284273548534,-0.03855319381307128,0.06546139956081432,0.0
183,cue_centre,pos,posner1,79.0,centre,False,['left'],[0.3113516999874264],True,658.0,658.6012,sub-00,ses-02,an-at,0.0,-0.037533370072122665,-0.07969475318977602,0.0006678334018404148,-0.11231284273548534,-0.03855319381307128,0.06546139956081432,0.0
184,cue_centre,pos,posner1,80.0,centre,True,['right'],[0.3236147998832166],True,663.0,661.6675789473684,sub-00,ses-02,an-at,125.0,0.03755358776030711,0.04830126710972723,0.0006678334018404148,-0.11231284273548534,-0.03855319381307128,0.06546139956081432,0.05
185,cue_right,pos,posner1,81.0,right,True,['right'],[0.26340779988095164],True,665.0,665.4192,sub-00,ses-02,an-at,0.0,-0.0662079644967298,-0.08206718527115929,0.0006678334018404148,-0.11231284273548534,-0.03855319381307128,0.06546139956081432,0.0
